key_resp_8.keys,key_resp_8.rt,key_resp_7.keys,key_resp_7.rt,key_resp.keys,key_resp.rt,key_resp_5.keys,key_resp_5.rt,key_resp_2.keys,key_resp_2.corr,key_resp_2.rt,key_resp_3.keys,key_resp_3.rt,test_trials.thisRepN,test_trials.thisTrialN,test_trials.thisN,test_trials.thisIndex,test_trials.ran,practice_mels,right_response,participant*,sex (m/f)*,age*,years of musical training*,I started musical training at the age of?*,date,expName,psychopyVersion,OS,frameRate,key_resp_6.keys,key_resp_6.rt,trials.thisRepN,trials.thisTrialN,trials.thisN,trials.thisIndex,trials.ran,mels
1,4.87535,1,16.93504,space,12.71498,space,2.749715,2,1,2.684435,7,3.35783,0,0,0,0,1,practice/practice_1_std.wav,2,47,f,33,0,0,2020-11-24_18h53.33.502,exp_mumufe_builder,2020.2.2,Win32,60,,,,,,,,
,,,,,,,,1,1,1.680705,7,1.44094,0,1,1,1,1,practice/practice_1_dev.wav,1,47,f,33,0,0,2020-11-24_18h53.33.502,exp_mumufe_builder,2020.2.2,Win32,60,,,,,,,,
,,,,,,,,2,1,2.750145,7,10.234455,0,2,2,2,1,practice/practice_2_std.wav,2,47,f,33,0,0,2020-11-24_18h53.33.502,exp_mumufe_builder,2020.2.2,Win32,60,,,,,,,,
,,,,,,,,1,1,10.59526,7,2.10521,0,3,3,3,1,practice/practice_2_dev.wav,1,47,f,33,0,0,2020-11-24_18h53.33.502,exp_mumufe_builder,2020.2.2,Win32,60,,,,,,,,
,,,,,,,,1,1,2.02361,6,5.103175,0,4,4,4,1,practice/practice_3_dev.wav,1,47,f,33,0,0,2020-11-24_18h53.33.502,exp_mumufe_builder,2020.2.2,Win32,60,,,,,,,,
,,,,,,,,1,1,1.995905,6,1.732,,,,,,,,47,f,33,0,0,2020-11-24_18h53.33.502,exp_mumufe_builder,2020.2.2,Win32,60,space,11.56041,0,0,0,29,1,mels/tonal_2a_dev.wav
,,,,,,,,1,1,4.804,5,4.47013,,,,,,,,47,f,33,0,0,2020-11-24_18h53.33.502,exp_mumufe_builder,2020.2.2,Win32,60,,,0,1,1,39,1,mels/tonal_4b_dev.wav
,,,,,,,,1,1,9.449485,6,2.8462,,,,,,,,47,f,33,0,0,2020-11-24_18h53.33.502,exp_mumufe_builder,2020.2.2,Win32,60,,,0,2,2,42,1,mels/tonal_5b_std.wav
,,,,,,,,2,0,3.466525,7,1.324375,,,,,,,,47,f,33,0,0,2020-11-24_18h53.33.502,exp_mumufe_builder,2020.2.2,Win32,60,,,0,3,3,36,1,mels/tonal_4a_std.wav
,,,,,,,,1,1,2.166055,7,1.283035,,,,,,,,47,f,33,0,0,2020-11-24_18h53.33.502,exp_mumufe_builder,2020.2.2,Win32,60,,,0,4,4,1,1,mels/atonal_1a_dev.wav
,,,,,,,,2,0,2.81971,7,1.297775,,,,,,,,47,f,33,0,0,2020-11-24_18h53.33.502,exp_mumufe_builder,2020.2.2,Win32,60,,,0,5,5,47,1,mels/tonal_6b_dev.wav
,,,,,,,,2,0,2.16848,7,0.77571,,,,,,,,47,f,33,0,0,2020-11-24_18h53.33.502,exp_mumufe_builder,2020.2.2,Win32,60,,,0,6,6,22,1,mels/atonal_6b_std.wav
,,,,,,,,1,1,2.48614,7,1.143465,,,,,,,,47,f,33,0,0,2020-11-24_18h53.33.502,exp_mumufe_builder,2020.2.2,Win32,60,,,0,7,7,24,1,mels/tonal_1a_std.wav
,,,,,,,,1,1,2.166235,6,1.255,,,,,,,,47,f,33,0,0,2020-11-24_18h53.33.502,exp_mumufe_builder,2020.2.2,Win32,60,,,0,8,8,34,1,mels/tonal_3b_std.wav
,,,,,,,,2,0,2.090775,7,0.638495,,,,,,,,47,f,33,0,0,2020-11-24_18h53.33.502,exp_mumufe_builder,2020.2.2,Win32,60,,,0,9,9,43,1,mels/tonal_5b_dev.wav
,,,,,,,,2,0,2.517295,7,1.87648,,,,,,,,47,f,33,0,0,2020-11-24_18h53.33.502,exp_mumufe_builder,2020.2.2,Win32,60,,,0,10,10,40,1,mels/tonal_5a_std.wav
,,,,,,,,2,0,2.79718,7,15.491005,,,,,,,,47,f,33,0,0,2020-11-24_18h53.33.502,exp_mumufe_builder,2020.2.2,Win32,60,,,0,11,11,31,1,mels/tonal_2b_dev.wav
,,,,,,,,1,1,1.167165,7,1.433805,,,,,,,,47,f,33,0,0,2020-11-24_18h53.33.502,exp_mumufe_builder,2020.2.2,Win32,60,,,0,12,12,21,1,mels/atonal_6a_dev.wav
,,,,,,,,1,1,1.549085,7,1.118395,,,,,,,,47,f,33,0,0,2020-11-24_18h53.33.502,exp_mumufe_builder,2020.2.2,Win32,60,,,0,13,13,15,1,mels/atonal_4b_dev.wav
,,,,,,,,2,0,1.832435,7,0.63795,,,,,,,,47,f,33,0,0,2020-11-24_18h53.33.502,exp_mumufe_builder,2020.2.2,Win32,60,,,0,14,14,10,1,mels/atonal_3b_std.wav
,,,,,,,,2,0,1.64931,7,0.884165,,,,,,,,47,f,33,0,0,2020-11-24_18h53.33.502,exp_mumufe_builder,2020.2.2,Win32,60,,,0,15,15,6,1,mels/atonal_2b_std.wav
,,,,,,,,1,1,0.649445,7,1.085335,,,,,,,,47,f,33,0,0,2020-11-24_18h53.33.502,exp_mumufe_builder,2020.2.2,Win32,60,,,0,16,16,12,1,mels/atonal_4a_std.wav
,,,,,,,,1,1,2.58673,5,1.90713,,,,,,,,47,f,33,0,0,2020-11-24_18h53.33.502,exp_mumufe_builder,2020.2.2,Win32,60,,,0,17,17,28,1,mels/tonal_2a_std.wav
,,,,,,,,1,1,1.320035,7,0.48489,,,,,,,,47,f,33,0,0,2020-11-24_18h53.33.502,exp_mumufe_builder,2020.2.2,Win32,60,,,0,18,18,13,1,mels/atonal_4a_dev.wav
,,,,,,,,2,0,23.709465,5,1.459945,,,,,,,,47,f,33,0,0,2020-11-24_18h53.33.502,exp_mumufe_builder,2020.2.2,Win32,60,,,0,19,19,30,1,mels/tonal_2b_std.wav
,,,,,,,,1,1,6.28162,6,1.135505,,,,,,,,47,f,33,0,0,2020-11-24_18h53.33.502,exp_mumufe_builder,2020.2.2,Win32,60,,,0,20,20,17,1,mels/atonal_5a_dev.wav
,,,,,,,,1,1,1.59825,7,1.0178,,,,,,,,47,f,33,0,0,2020-11-24_18h53.33.502,exp_mumufe_builder,2020.2.2,Win32,60,,,0,21,21,0,1,mels/atonal_1a_std.wav
,,,,,,,,2,0,2.601205,7,0.6602,,,,,,,,47,f,33,0,0,2020-11-24_18h53.33.502,exp_mumufe_builder,2020.2.2,Win32,60,,,0,22,22,18,1,mels/atonal_5b_std.wav
,,,,,,,,1,1,1.482175,7,0.720265,,,,,,,,47,f,33,0,0,2020-11-24_18h53.33.502,exp_mumufe_builder,2020.2.2,Win32,60,,,0,23,23,5,1,mels/atonal_2a_dev.wav
,,,,,,,,2,0,1.634205,7,0.688645,,,,,,,,47,f,33,0,0,2020-11-24_18h53.33.502,exp_mumufe_builder,2020.2.2,Win32,60,,,0,24,24,41,1,mels/tonal_5a_dev.wav
,,,,,,,,2,0,1.185845,7,0.910355,,,,,,,,47,f,33,0,0,2020-11-24_18h53.33.502,exp_mumufe_builder,2020.2.2,Win32,60,,,0,25,25,16,1,mels/atonal_5a_std.wav
,,,,,,,,2,0,27.097635,6,1.753355,,,,,,,,47,f,33,0,0,2020-11-24_18h53.33.502,exp_mumufe_builder,2020.2.2,Win32,60,,,0,26,26,4,1,mels/atonal_2a_std.wav
,,,,,,,,2,0,1.219415,7,0.684035,,,,,,,,47,f,33,0,0,2020-11-24_18h53.33.502,exp_mumufe_builder,2020.2.2,Win32,60,,,0,27,27,27,1,mels/tonal_1b_dev.wav
,,,,,,,,1,1,1.10705,7,0.969905,,,,,,,,47,f,33,0,0,2020-11-24_18h53.33.502,exp_mumufe_builder,2020.2.2,Win32,60,,,0,28,28,9,1,mels/atonal_3a_dev.wav
,,,,,,,,2,0,1.217415,7,0.85583,,,,,,,,47,f,33,0,0,2020-11-24_18h53.33.502,exp_mumufe_builder,2020.2.2,Win32,60,,,0,29,29,26,1,mels/tonal_1b_std.wav
,,,,,,,,1,1,4.136475,5,1.92344,,,,,,,,47,f,33,0,0,2020-11-24_18h53.33.502,exp_mumufe_builder,2020.2.2,Win32,60,,,0,30,30,37,1,mels/tonal_4a_dev.wav
,,,,,,,,2,0,1.50514,7,0.66785,,,,,,,,47,f,33,0,0,2020-11-24_18h53.33.502,exp_mumufe_builder,2020.2.2,Win32,60,,,0,31,31,38,1,mels/tonal_4b_std.wav
,,,,,,,,2,0,9.26799,6,1.049275,,,,,,,,47,f,33,0,0,2020-11-24_18h53.33.502,exp_mumufe_builder,2020.2.2,Win32,60,,,0,32,32,3,1,mels/atonal_1b_dev.wav
,,,,,,,,2,0,2.330535,7,1.71559,,,,,,,,47,f,33,0,0,2020-11-24_18h53.33.502,exp_mumufe_builder,2020.2.2,Win32,60,,,0,33,33,44,1,mels/tonal_6a_std.wav
,,,,,,,,1,1,4.880915,7,0.85039,,,,,,,,47,f,33,0,0,2020-11-24_18h53.33.502,exp_mumufe_builder,2020.2.2,Win32,60,,,0,34,34,20,1,mels/atonal_6a_std.wav
,,,,,,,,2,0,3.2511,6,0.560245,,,,,,,,47,f,33,0,0,2020-11-24_18h53.33.502,exp_mumufe_builder,2020.2.2,Win32,60,,,0,35,35,19,1,mels/atonal_5b_dev.wav
,,,,,,,,2,0,2.927345,7,0.38453,,,,,,,,47,f,33,0,0,2020-11-24_18h53.33.502,exp_mumufe_builder,2020.2.2,Win32,60,,,0,36,36,35,1,mels/tonal_3b_dev.wav
,,,,,,,,2,0,25.38954,6,1.050925,,,,,,,,47,f,33,0,0,2020-11-24_18h53.33.502,exp_mumufe_builder,2020.2.2,Win32,60,,,0,37,37,8,1,mels/atonal_3a_std.wav
,,,,,,,,2,0,3.57686,7,0.45007,,,,,,,,47,f,33,0,0,2020-11-24_18h53.33.502,exp_mumufe_builder,2020.2.2,Win32,60,,,0,38,38,2,1,mels/atonal_1b_std.wav
,,,,,,,,1,1,1.074375,7,0.639015,,,,,,,,47,f,33,0,0,2020-11-24_18h53.33.502,exp_mumufe_builder,2020.2.2,Win32,60,,,0,39,39,14,1,mels/atonal_4b_std.wav
,,,,,,,,2,0,1.38393,6,0.96616,,,,,,,,47,f,33,0,0,2020-11-24_18h53.33.502,exp_mumufe_builder,2020.2.2,Win32,60,,,0,40,40,11,1,mels/atonal_3b_dev.wav
,,,,,,,,1,1,1.79828,5,1.869155,,,,,,,,47,f,33,0,0,2020-11-24_18h53.33.502,exp_mumufe_builder,2020.2.2,Win32,60,,,0,41,41,25,1,mels/tonal_1a_dev.wav
,,,,,,,,2,0,2.630835,7,0.96729,,,,,,,,47,f,33,0,0,2020-11-24_18h53.33.502,exp_mumufe_builder,2020.2.2,Win32,60,,,0,42,42,32,1,mels/tonal_3a_std.wav
,,,,,,,,1,1,1.317535,7,0.65068,,,,,,,,47,f,33,0,0,2020-11-24_18h53.33.502,exp_mumufe_builder,2020.2.2,Win32,60,,,0,43,43,45,1,mels/tonal_6a_dev.wav
,,,,,,,,2,0,1.31271,5,1.381815,,,,,,,,47,f,33,0,0,2020-11-24_18h53.33.502,exp_mumufe_builder,2020.2.2,Win32,60,,,0,44,44,33,1,mels/tonal_3a_dev.wav
,,,,,,,,2,0,0.66135,7,0.717615,,,,,,,,47,f,33,0,0,2020-11-24_18h53.33.502,exp_mumufe_builder,2020.2.2,Win32,60,,,0,45,45,7,1,mels/atonal_2b_dev.wav
,,,,,,,,1,1,1.576025,7,0.686575,,,,,,,,47,f,33,0,0,2020-11-24_18h53.33.502,exp_mumufe_builder,2020.2.2,Win32,60,,,0,46,46,46,1,mels/tonal_6b_std.wav
,,,,,,,,2,0,2.263365,6,1.167315,,,,,,,,47,f,33,0,0,2020-11-24_18h53.33.502,exp_mumufe_builder,2020.2.2,Win32,60,,,0,47,47,23,1,mels/atonal_6b_dev.wav
