key_resp_8.keys,key_resp_8.rt,key_resp_7.keys,key_resp_7.rt,key_resp.keys,key_resp.rt,key_resp_5.keys,key_resp_5.rt,key_resp_2.keys,key_resp_2.corr,key_resp_2.rt,key_resp_3.keys,key_resp_3.rt,test_trials.thisRepN,test_trials.thisTrialN,test_trials.thisN,test_trials.thisIndex,test_trials.ran,practice_mels,right_response,By klicking “OK” below I confirm that I have carefully read the information in the email and I agree to participate in the study*,participant*,sex (m/f)*,age*,years of musical training*,I started musical training at the age of?*,date,expName,psychopyVersion,OS,frameRate,key_resp_6.keys,key_resp_6.rt,trials.thisRepN,trials.thisTrialN,trials.thisN,trials.thisIndex,trials.ran,mels
1,46.028275,1,12.70699,space,70.339995,space,3.630725,2,1,24.230885,7,5.14337,0,0,0,0,1,practice/practice_1_std.wav,2,I confirm,62,f,24,0,0,2021-01-08_16h45.22.421,exp_mumufe_builder,2020.2.2,Win32,60,,,,,,,,
,,,,,,,,1,1,3.13634,7,2.019095,0,1,1,1,1,practice/practice_1_dev.wav,1,I confirm,62,f,24,0,0,2021-01-08_16h45.22.421,exp_mumufe_builder,2020.2.2,Win32,60,,,,,,,,
,,,,,,,,1,0,2.853975,6,4.72121,0,2,2,2,1,practice/practice_2_std.wav,2,I confirm,62,f,24,0,0,2021-01-08_16h45.22.421,exp_mumufe_builder,2020.2.2,Win32,60,,,,,,,,
,,,,,,,,1,1,1.990865,7,2.53315,0,3,3,3,1,practice/practice_2_dev.wav,1,I confirm,62,f,24,0,0,2021-01-08_16h45.22.421,exp_mumufe_builder,2020.2.2,Win32,60,,,,,,,,
,,,,,,,,1,1,2.100705,5,2.72302,0,4,4,4,1,practice/practice_3_dev.wav,1,I confirm,62,f,24,0,0,2021-01-08_16h45.22.421,exp_mumufe_builder,2020.2.2,Win32,60,,,,,,,,
,,,,,,,,1,1,3.136725,3,3.867255,,,,,,,,I confirm,62,f,24,0,0,2021-01-08_16h45.22.421,exp_mumufe_builder,2020.2.2,Win32,60,space,4.09005,0,0,0,47,1,mels/tonal_6b_dev.wav
,,,,,,,,1,1,2.805855,3,4.084395,,,,,,,,I confirm,62,f,24,0,0,2021-01-08_16h45.22.421,exp_mumufe_builder,2020.2.2,Win32,60,,,0,1,1,17,1,mels/atonal_5a_dev.wav
,,,,,,,,1,1,1.420195,3,3.68584,,,,,,,,I confirm,62,f,24,0,0,2021-01-08_16h45.22.421,exp_mumufe_builder,2020.2.2,Win32,60,,,0,2,2,11,1,mels/atonal_3b_dev.wav
,,,,,,,,2,0,3.42393,3,2.2838,,,,,,,,I confirm,62,f,24,0,0,2021-01-08_16h45.22.421,exp_mumufe_builder,2020.2.2,Win32,60,,,0,3,3,4,1,mels/atonal_2a_std.wav
,,,,,,,,2,0,2.802075,6,1.56785,,,,,,,,I confirm,62,f,24,0,0,2021-01-08_16h45.22.421,exp_mumufe_builder,2020.2.2,Win32,60,,,0,4,4,42,1,mels/tonal_5b_std.wav
,,,,,,,,2,0,1.93605,6,2.251985,,,,,,,,I confirm,62,f,24,0,0,2021-01-08_16h45.22.421,exp_mumufe_builder,2020.2.2,Win32,60,,,0,5,5,32,1,mels/tonal_3a_std.wav
,,,,,,,,2,0,3.524095,6,1.656265,,,,,,,,I confirm,62,f,24,0,0,2021-01-08_16h45.22.421,exp_mumufe_builder,2020.2.2,Win32,60,,,0,6,6,30,1,mels/tonal_2b_std.wav
,,,,,,,,2,0,1.66703,5,1.36824,,,,,,,,I confirm,62,f,24,0,0,2021-01-08_16h45.22.421,exp_mumufe_builder,2020.2.2,Win32,60,,,0,7,7,44,1,mels/tonal_6a_std.wav
,,,,,,,,2,0,2.111385,4,1.33447,,,,,,,,I confirm,62,f,24,0,0,2021-01-08_16h45.22.421,exp_mumufe_builder,2020.2.2,Win32,60,,,0,8,8,24,1,mels/tonal_1a_std.wav
,,,,,,,,1,1,1.035265,5,2.702005,,,,,,,,I confirm,62,f,24,0,0,2021-01-08_16h45.22.421,exp_mumufe_builder,2020.2.2,Win32,60,,,0,9,9,43,1,mels/tonal_5b_dev.wav
,,,,,,,,1,1,1.857365,5,1.875845,,,,,,,,I confirm,62,f,24,0,0,2021-01-08_16h45.22.421,exp_mumufe_builder,2020.2.2,Win32,60,,,0,10,10,21,1,mels/atonal_6a_dev.wav
,,,,,,,,1,1,1.933075,6,1.37059,,,,,,,,I confirm,62,f,24,0,0,2021-01-08_16h45.22.421,exp_mumufe_builder,2020.2.2,Win32,60,,,0,11,11,3,1,mels/atonal_1b_dev.wav
,,,,,,,,2,0,2.471545,2,2.008745,,,,,,,,I confirm,62,f,24,0,0,2021-01-08_16h45.22.421,exp_mumufe_builder,2020.2.2,Win32,60,,,0,12,12,16,1,mels/atonal_5a_std.wav
,,,,,,,,2,0,2.659035,2,1.893545,,,,,,,,I confirm,62,f,24,0,0,2021-01-08_16h45.22.421,exp_mumufe_builder,2020.2.2,Win32,60,,,0,13,13,2,1,mels/atonal_1b_std.wav
,,,,,,,,1,1,1.437035,3,1.635205,,,,,,,,I confirm,62,f,24,0,0,2021-01-08_16h45.22.421,exp_mumufe_builder,2020.2.2,Win32,60,,,0,14,14,1,1,mels/atonal_1a_dev.wav
,,,,,,,,2,0,2.13764,5,1.373455,,,,,,,,I confirm,62,f,24,0,0,2021-01-08_16h45.22.421,exp_mumufe_builder,2020.2.2,Win32,60,,,0,15,15,18,1,mels/atonal_5b_std.wav
,,,,,,,,1,1,1.945895,3,2.3088,,,,,,,,I confirm,62,f,24,0,0,2021-01-08_16h45.22.421,exp_mumufe_builder,2020.2.2,Win32,60,,,0,16,16,6,1,mels/atonal_2b_std.wav
,,,,,,,,1,1,1.15435,3,0.76636,,,,,,,,I confirm,62,f,24,0,0,2021-01-08_16h45.22.421,exp_mumufe_builder,2020.2.2,Win32,60,,,0,17,17,20,1,mels/atonal_6a_std.wav
,,,,,,,,1,1,2.11903,5,1.02634,,,,,,,,I confirm,62,f,24,0,0,2021-01-08_16h45.22.421,exp_mumufe_builder,2020.2.2,Win32,60,,,0,18,18,19,1,mels/atonal_5b_dev.wav
,,,,,,,,2,0,2.685335,6,0.89688,,,,,,,,I confirm,62,f,24,0,0,2021-01-08_16h45.22.421,exp_mumufe_builder,2020.2.2,Win32,60,,,0,19,19,38,1,mels/tonal_4b_std.wav
,,,,,,,,1,1,1.070085,6,0.795435,,,,,,,,I confirm,62,f,24,0,0,2021-01-08_16h45.22.421,exp_mumufe_builder,2020.2.2,Win32,60,,,0,20,20,37,1,mels/tonal_4a_dev.wav
,,,,,,,,1,1,1.39148,5,1.21624,,,,,,,,I confirm,62,f,24,0,0,2021-01-08_16h45.22.421,exp_mumufe_builder,2020.2.2,Win32,60,,,0,21,21,9,1,mels/atonal_3a_dev.wav
,,,,,,,,2,0,1.95705,3,1.02591,,,,,,,,I confirm,62,f,24,0,0,2021-01-08_16h45.22.421,exp_mumufe_builder,2020.2.2,Win32,60,,,0,22,22,14,1,mels/atonal_4b_std.wav
,,,,,,,,2,0,1.31941,3,0.769065,,,,,,,,I confirm,62,f,24,0,0,2021-01-08_16h45.22.421,exp_mumufe_builder,2020.2.2,Win32,60,,,0,23,23,12,1,mels/atonal_4a_std.wav
,,,,,,,,2,0,1.620495,3,0.513235,,,,,,,,I confirm,62,f,24,0,0,2021-01-08_16h45.22.421,exp_mumufe_builder,2020.2.2,Win32,60,,,0,24,24,25,1,mels/tonal_1a_dev.wav
,,,,,,,,1,1,1.29481,5,1.53602,,,,,,,,I confirm,62,f,24,0,0,2021-01-08_16h45.22.421,exp_mumufe_builder,2020.2.2,Win32,60,,,0,25,25,33,1,mels/tonal_3a_dev.wav
,,,,,,,,1,1,1.241605,6,1.238615,,,,,,,,I confirm,62,f,24,0,0,2021-01-08_16h45.22.421,exp_mumufe_builder,2020.2.2,Win32,60,,,0,26,26,45,1,mels/tonal_6a_dev.wav
,,,,,,,,2,0,1.17197,6,0.752275,,,,,,,,I confirm,62,f,24,0,0,2021-01-08_16h45.22.421,exp_mumufe_builder,2020.2.2,Win32,60,,,0,27,27,26,1,mels/tonal_1b_std.wav
,,,,,,,,1,1,1.585335,6,0.92428,,,,,,,,I confirm,62,f,24,0,0,2021-01-08_16h45.22.421,exp_mumufe_builder,2020.2.2,Win32,60,,,0,28,28,10,1,mels/atonal_3b_std.wav
,,,,,,,,1,1,1.104255,5,0.862045,,,,,,,,I confirm,62,f,24,0,0,2021-01-08_16h45.22.421,exp_mumufe_builder,2020.2.2,Win32,60,,,0,29,29,41,1,mels/tonal_5a_dev.wav
,,,,,,,,2,0,1.4024,6,1.07219,,,,,,,,I confirm,62,f,24,0,0,2021-01-08_16h45.22.421,exp_mumufe_builder,2020.2.2,Win32,60,,,0,30,30,40,1,mels/tonal_5a_std.wav
,,,,,,,,1,1,1.186915,7,0.974775,,,,,,,,I confirm,62,f,24,0,0,2021-01-08_16h45.22.421,exp_mumufe_builder,2020.2.2,Win32,60,,,0,31,31,27,1,mels/tonal_1b_dev.wav
,,,,,,,,2,0,1.39265,5,0.59302,,,,,,,,I confirm,62,f,24,0,0,2021-01-08_16h45.22.421,exp_mumufe_builder,2020.2.2,Win32,60,,,0,32,32,22,1,mels/atonal_6b_std.wav
,,,,,,,,1,1,1.332695,5,0.88928,,,,,,,,I confirm,62,f,24,0,0,2021-01-08_16h45.22.421,exp_mumufe_builder,2020.2.2,Win32,60,,,0,33,33,35,1,mels/tonal_3b_dev.wav
,,,,,,,,1,1,1.06307,6,0.7685,,,,,,,,I confirm,62,f,24,0,0,2021-01-08_16h45.22.421,exp_mumufe_builder,2020.2.2,Win32,60,,,0,34,34,5,1,mels/atonal_2a_dev.wav
,,,,,,,,2,0,1.95212,6,0.68482,,,,,,,,I confirm,62,f,24,0,0,2021-01-08_16h45.22.421,exp_mumufe_builder,2020.2.2,Win32,60,,,0,35,35,28,1,mels/tonal_2a_std.wav
,,,,,,,,2,0,1.90171,6,0.721425,,,,,,,,I confirm,62,f,24,0,0,2021-01-08_16h45.22.421,exp_mumufe_builder,2020.2.2,Win32,60,,,0,36,36,36,1,mels/tonal_4a_std.wav
,,,,,,,,1,1,2.141995,7,1.73554,,,,,,,,I confirm,62,f,24,0,0,2021-01-08_16h45.22.421,exp_mumufe_builder,2020.2.2,Win32,60,,,0,37,37,29,1,mels/tonal_2a_dev.wav
,,,,,,,,1,1,6.689535,5,1.551595,,,,,,,,I confirm,62,f,24,0,0,2021-01-08_16h45.22.421,exp_mumufe_builder,2020.2.2,Win32,60,,,0,38,38,39,1,mels/tonal_4b_dev.wav
,,,,,,,,1,1,1.56067,6,1.532735,,,,,,,,I confirm,62,f,24,0,0,2021-01-08_16h45.22.421,exp_mumufe_builder,2020.2.2,Win32,60,,,0,39,39,31,1,mels/tonal_2b_dev.wav
,,,,,,,,2,0,1.2686,3,1.218685,,,,,,,,I confirm,62,f,24,0,0,2021-01-08_16h45.22.421,exp_mumufe_builder,2020.2.2,Win32,60,,,0,40,40,23,1,mels/atonal_6b_dev.wav
,,,,,,,,2,0,1.37578,6,0.70252,,,,,,,,I confirm,62,f,24,0,0,2021-01-08_16h45.22.421,exp_mumufe_builder,2020.2.2,Win32,60,,,0,41,41,15,1,mels/atonal_4b_dev.wav
,,,,,,,,1,1,0.95979,6,0.992315,,,,,,,,I confirm,62,f,24,0,0,2021-01-08_16h45.22.421,exp_mumufe_builder,2020.2.2,Win32,60,,,0,42,42,7,1,mels/atonal_2b_dev.wav
,,,,,,,,1,1,1.30201,6,0.5666,,,,,,,,I confirm,62,f,24,0,0,2021-01-08_16h45.22.421,exp_mumufe_builder,2020.2.2,Win32,60,,,0,43,43,13,1,mels/atonal_4a_dev.wav
,,,,,,,,2,0,1.4784,7,0.65231,,,,,,,,I confirm,62,f,24,0,0,2021-01-08_16h45.22.421,exp_mumufe_builder,2020.2.2,Win32,60,,,0,44,44,34,1,mels/tonal_3b_std.wav
,,,,,,,,1,1,1.121165,6,0.72821,,,,,,,,I confirm,62,f,24,0,0,2021-01-08_16h45.22.421,exp_mumufe_builder,2020.2.2,Win32,60,,,0,45,45,0,1,mels/atonal_1a_std.wav
,,,,,,,,2,0,1.724135,7,1.047485,,,,,,,,I confirm,62,f,24,0,0,2021-01-08_16h45.22.421,exp_mumufe_builder,2020.2.2,Win32,60,,,0,46,46,46,1,mels/tonal_6b_std.wav
,,,,,,,,2,0,0.98603,7,0.31837,,,,,,,,I confirm,62,f,24,0,0,2021-01-08_16h45.22.421,exp_mumufe_builder,2020.2.2,Win32,60,,,0,47,47,8,1,mels/atonal_3a_std.wav
