key_resp_8.keys,key_resp_8.rt,key_resp_7.keys,key_resp_7.rt,key_resp.keys,key_resp.rt,key_resp_5.keys,key_resp_5.rt,key_resp_2.keys,key_resp_2.corr,key_resp_2.rt,key_resp_3.keys,key_resp_3.rt,test_trials.thisRepN,test_trials.thisTrialN,test_trials.thisN,test_trials.thisIndex,test_trials.ran,practice_mels,right_response,participant*,sex (m/f)*,age*,years of musical training*,I started musical training at the age of?*,date,expName,psychopyVersion,OS,frameRate,key_resp_6.keys,key_resp_6.rt,trials.thisRepN,trials.thisTrialN,trials.thisN,trials.thisIndex,trials.ran,mels
1,10.814735,5,15.19074,space,49.97775,space,9.72441,2,1,60.992025,1,4.12882,0,0,0,0,1,practice/practice_1_std.wav,2,04,m,25,1,6,2020-09-06_10h47.53.831,exp_mumufe_builder,2020.2.3,Win32,60,,,,,,,,
,,,,,,,,2,0,3.895935,5,5.773825,0,1,1,1,1,practice/practice_1_dev.wav,1,04,m,25,1,6,2020-09-06_10h47.53.831,exp_mumufe_builder,2020.2.3,Win32,60,,,,,,,,
,,,,,,,,2,1,1.750565,6,1.803665,0,2,2,2,1,practice/practice_2_std.wav,2,04,m,25,1,6,2020-09-06_10h47.53.831,exp_mumufe_builder,2020.2.3,Win32,60,,,,,,,,
,,,,,,,,1,1,0.42876,4,1.52675,0,3,3,3,1,practice/practice_2_dev.wav,1,04,m,25,1,6,2020-09-06_10h47.53.831,exp_mumufe_builder,2020.2.3,Win32,60,,,,,,,,
,,,,,,,,2,0,1.567225,4,1.85031,0,4,4,4,1,practice/practice_3_dev.wav,1,04,m,25,1,6,2020-09-06_10h47.53.831,exp_mumufe_builder,2020.2.3,Win32,60,,,,,,,,
,,,,,,,,1,1,0.607535,4,3.19973,,,,,,,,04,m,25,1,6,2020-09-06_10h47.53.831,exp_mumufe_builder,2020.2.3,Win32,60,space,2.9821,0,0,0,43,1,mels/tonal_5b_dev.wav
,,,,,,,,1,1,2.23636,4,1.188845,,,,,,,,04,m,25,1,6,2020-09-06_10h47.53.831,exp_mumufe_builder,2020.2.3,Win32,60,,,0,1,1,17,1,mels/atonal_5a_dev.wav
,,,,,,,,2,0,1.39121,7,2.509105,,,,,,,,04,m,25,1,6,2020-09-06_10h47.53.831,exp_mumufe_builder,2020.2.3,Win32,60,,,0,2,2,40,1,mels/tonal_5a_std.wav
,,,,,,,,2,0,2.28497,5,5.01798,,,,,,,,04,m,25,1,6,2020-09-06_10h47.53.831,exp_mumufe_builder,2020.2.3,Win32,60,,,0,3,3,24,1,mels/tonal_1a_std.wav
,,,,,,,,2,0,5.929145,5,1.121275,,,,,,,,04,m,25,1,6,2020-09-06_10h47.53.831,exp_mumufe_builder,2020.2.3,Win32,60,,,0,4,4,47,1,mels/tonal_6b_dev.wav
,,,,,,,,1,1,0.88725,5,1.85438,,,,,,,,04,m,25,1,6,2020-09-06_10h47.53.831,exp_mumufe_builder,2020.2.3,Win32,60,,,0,5,5,45,1,mels/tonal_6a_dev.wav
,,,,,,,,1,1,0.667345,6,0.858805,,,,,,,,04,m,25,1,6,2020-09-06_10h47.53.831,exp_mumufe_builder,2020.2.3,Win32,60,,,0,6,6,5,1,mels/atonal_2a_dev.wav
,,,,,,,,2,0,5.889255,4,1.77087,,,,,,,,04,m,25,1,6,2020-09-06_10h47.53.831,exp_mumufe_builder,2020.2.3,Win32,60,,,0,7,7,20,1,mels/atonal_6a_std.wav
,,,,,,,,1,1,3.245255,3,1.40185,,,,,,,,04,m,25,1,6,2020-09-06_10h47.53.831,exp_mumufe_builder,2020.2.3,Win32,60,,,0,8,8,4,1,mels/atonal_2a_std.wav
,,,,,,,,2,0,1.52605,6,0.752305,,,,,,,,04,m,25,1,6,2020-09-06_10h47.53.831,exp_mumufe_builder,2020.2.3,Win32,60,,,0,9,9,21,1,mels/atonal_6a_dev.wav
,,,,,,,,2,0,1.528385,6,0.553175,,,,,,,,04,m,25,1,6,2020-09-06_10h47.53.831,exp_mumufe_builder,2020.2.3,Win32,60,,,0,10,10,46,1,mels/tonal_6b_std.wav
,,,,,,,,1,1,0.47798,6,0.90984,,,,,,,,04,m,25,1,6,2020-09-06_10h47.53.831,exp_mumufe_builder,2020.2.3,Win32,60,,,0,11,11,29,1,mels/tonal_2a_dev.wav
,,,,,,,,2,0,1.517765,5,1.935625,,,,,,,,04,m,25,1,6,2020-09-06_10h47.53.831,exp_mumufe_builder,2020.2.3,Win32,60,,,0,12,12,36,1,mels/tonal_4a_std.wav
,,,,,,,,2,0,2.09951,3,0.85482,,,,,,,,04,m,25,1,6,2020-09-06_10h47.53.831,exp_mumufe_builder,2020.2.3,Win32,60,,,0,13,13,34,1,mels/tonal_3b_std.wav
,,,,,,,,2,0,2.34988,5,1.3008,,,,,,,,04,m,25,1,6,2020-09-06_10h47.53.831,exp_mumufe_builder,2020.2.3,Win32,60,,,0,14,14,44,1,mels/tonal_6a_std.wav
,,,,,,,,2,0,2.126045,5,0.70656,,,,,,,,04,m,25,1,6,2020-09-06_10h47.53.831,exp_mumufe_builder,2020.2.3,Win32,60,,,0,15,15,18,1,mels/atonal_5b_std.wav
,,,,,,,,2,0,2.13019,5,0.31729,,,,,,,,04,m,25,1,6,2020-09-06_10h47.53.831,exp_mumufe_builder,2020.2.3,Win32,60,,,0,16,16,10,1,mels/atonal_3b_std.wav
,,,,,,,,2,0,0.600625,7,0.651325,,,,,,,,04,m,25,1,6,2020-09-06_10h47.53.831,exp_mumufe_builder,2020.2.3,Win32,60,,,0,17,17,41,1,mels/tonal_5a_dev.wav
,,,,,,,,1,1,0.87106,2,1.29561,,,,,,,,04,m,25,1,6,2020-09-06_10h47.53.831,exp_mumufe_builder,2020.2.3,Win32,60,,,0,18,18,12,1,mels/atonal_4a_std.wav
,,,,,,,,2,0,1.456055,6,0.53598,,,,,,,,04,m,25,1,6,2020-09-06_10h47.53.831,exp_mumufe_builder,2020.2.3,Win32,60,,,0,19,19,33,1,mels/tonal_3a_dev.wav
,,,,,,,,2,0,9.876965,5,3.868185,,,,,,,,04,m,25,1,6,2020-09-06_10h47.53.831,exp_mumufe_builder,2020.2.3,Win32,60,,,0,20,20,38,1,mels/tonal_4b_std.wav
,,,,,,,,1,1,0.533535,7,0.200815,,,,,,,,04,m,25,1,6,2020-09-06_10h47.53.831,exp_mumufe_builder,2020.2.3,Win32,60,,,0,21,21,8,1,mels/atonal_3a_std.wav
,,,,,,,,2,0,0.39279,5,2.068065,,,,,,,,04,m,25,1,6,2020-09-06_10h47.53.831,exp_mumufe_builder,2020.2.3,Win32,60,,,0,22,22,26,1,mels/tonal_1b_std.wav
,,,,,,,,2,0,0.47655,7,0.25446,,,,,,,,04,m,25,1,6,2020-09-06_10h47.53.831,exp_mumufe_builder,2020.2.3,Win32,60,,,0,23,23,32,1,mels/tonal_3a_std.wav
,,,,,,,,1,1,0.446405,5,1.222945,,,,,,,,04,m,25,1,6,2020-09-06_10h47.53.831,exp_mumufe_builder,2020.2.3,Win32,60,,,0,24,24,22,1,mels/atonal_6b_std.wav
,,,,,,,,2,0,0.49406,6,0.4954,,,,,,,,04,m,25,1,6,2020-09-06_10h47.53.831,exp_mumufe_builder,2020.2.3,Win32,60,,,0,25,25,30,1,mels/tonal_2b_std.wav
,,,,,,,,1,1,0.444165,5,0.185065,,,,,,,,04,m,25,1,6,2020-09-06_10h47.53.831,exp_mumufe_builder,2020.2.3,Win32,60,,,0,26,26,23,1,mels/atonal_6b_dev.wav
,,,,,,,,1,1,4.944835,2,0.25305,,,,,,,,04,m,25,1,6,2020-09-06_10h47.53.831,exp_mumufe_builder,2020.2.3,Win32,60,,,0,27,27,2,1,mels/atonal_1b_std.wav
,,,,,,,,1,1,0.53559,2,0.195945,,,,,,,,04,m,25,1,6,2020-09-06_10h47.53.831,exp_mumufe_builder,2020.2.3,Win32,60,,,0,28,28,14,1,mels/atonal_4b_std.wav
,,,,,,,,2,0,3.550295,3,1.65042,,,,,,,,04,m,25,1,6,2020-09-06_10h47.53.831,exp_mumufe_builder,2020.2.3,Win32,60,,,0,29,29,31,1,mels/tonal_2b_dev.wav
,,,,,,,,2,0,0.768575,4,1.003915,,,,,,,,04,m,25,1,6,2020-09-06_10h47.53.831,exp_mumufe_builder,2020.2.3,Win32,60,,,0,30,30,42,1,mels/tonal_5b_std.wav
,,,,,,,,2,0,4.29183,4,1.089075,,,,,,,,04,m,25,1,6,2020-09-06_10h47.53.831,exp_mumufe_builder,2020.2.3,Win32,60,,,0,31,31,35,1,mels/tonal_3b_dev.wav
,,,,,,,,1,1,0.87751,5,1.239885,,,,,,,,04,m,25,1,6,2020-09-06_10h47.53.831,exp_mumufe_builder,2020.2.3,Win32,60,,,0,32,32,6,1,mels/atonal_2b_std.wav
,,,,,,,,2,0,1.89164,3,0.46713,,,,,,,,04,m,25,1,6,2020-09-06_10h47.53.831,exp_mumufe_builder,2020.2.3,Win32,60,,,0,33,33,19,1,mels/atonal_5b_dev.wav
,,,,,,,,2,0,3.81159,4,2.6345,,,,,,,,04,m,25,1,6,2020-09-06_10h47.53.831,exp_mumufe_builder,2020.2.3,Win32,60,,,0,34,34,25,1,mels/tonal_1a_dev.wav
,,,,,,,,1,1,2.222815,4,0.95164,,,,,,,,04,m,25,1,6,2020-09-06_10h47.53.831,exp_mumufe_builder,2020.2.3,Win32,60,,,0,35,35,7,1,mels/atonal_2b_dev.wav
,,,,,,,,2,0,0.678725,5,1.279375,,,,,,,,04,m,25,1,6,2020-09-06_10h47.53.831,exp_mumufe_builder,2020.2.3,Win32,60,,,0,36,36,37,1,mels/tonal_4a_dev.wav
,,,,,,,,1,1,0.384465,4,4.017075,,,,,,,,04,m,25,1,6,2020-09-06_10h47.53.831,exp_mumufe_builder,2020.2.3,Win32,60,,,0,37,37,9,1,mels/atonal_3a_dev.wav
,,,,,,,,1,1,1.877435,3,0.58378,,,,,,,,04,m,25,1,6,2020-09-06_10h47.53.831,exp_mumufe_builder,2020.2.3,Win32,60,,,0,38,38,16,1,mels/atonal_5a_std.wav
,,,,,,,,1,1,2.84403,2,0.641065,,,,,,,,04,m,25,1,6,2020-09-06_10h47.53.831,exp_mumufe_builder,2020.2.3,Win32,60,,,0,39,39,28,1,mels/tonal_2a_std.wav
,,,,,,,,1,1,0.918305,3,1.23411,,,,,,,,04,m,25,1,6,2020-09-06_10h47.53.831,exp_mumufe_builder,2020.2.3,Win32,60,,,0,40,40,11,1,mels/atonal_3b_dev.wav
,,,,,,,,1,1,4.710785,3,0.27149,,,,,,,,04,m,25,1,6,2020-09-06_10h47.53.831,exp_mumufe_builder,2020.2.3,Win32,60,,,0,41,41,13,1,mels/atonal_4a_dev.wav
,,,,,,,,2,0,0.40096,7,0.15865,,,,,,,,04,m,25,1,6,2020-09-06_10h47.53.831,exp_mumufe_builder,2020.2.3,Win32,60,,,0,42,42,39,1,mels/tonal_4b_dev.wav
,,,,,,,,1,1,0.36607,7,0.14193,,,,,,,,04,m,25,1,6,2020-09-06_10h47.53.831,exp_mumufe_builder,2020.2.3,Win32,60,,,0,43,43,27,1,mels/tonal_1b_dev.wav
,,,,,,,,2,0,11.31322,3,0.24214,,,,,,,,04,m,25,1,6,2020-09-06_10h47.53.831,exp_mumufe_builder,2020.2.3,Win32,60,,,0,44,44,15,1,mels/atonal_4b_dev.wav
,,,,,,,,2,0,3.033925,5,1.078665,,,,,,,,04,m,25,1,6,2020-09-06_10h47.53.831,exp_mumufe_builder,2020.2.3,Win32,60,,,0,45,45,3,1,mels/atonal_1b_dev.wav
,,,,,,,,2,0,1.01854,5,0.729415,,,,,,,,04,m,25,1,6,2020-09-06_10h47.53.831,exp_mumufe_builder,2020.2.3,Win32,60,,,0,46,46,0,1,mels/atonal_1a_std.wav
,,,,,,,,2,0,1.38823,4,1.5008,,,,,,,,04,m,25,1,6,2020-09-06_10h47.53.831,exp_mumufe_builder,2020.2.3,Win32,60,,,0,47,47,1,1,mels/atonal_1a_dev.wav
