key_resp_8.keys,key_resp_8.rt,key_resp_7.keys,key_resp_7.rt,key_resp.keys,key_resp.rt,key_resp_5.keys,key_resp_5.rt,key_resp_2.keys,key_resp_2.corr,key_resp_2.rt,key_resp_3.keys,key_resp_3.rt,test_trials.thisRepN,test_trials.thisTrialN,test_trials.thisN,test_trials.thisIndex,test_trials.ran,practice_mels,right_response,participant*,sex (m/f)*,age*,years of musical training*,I started musical training at the age of?*,date,expName,psychopyVersion,OS,frameRate,key_resp_6.keys,key_resp_6.rt,trials.thisRepN,trials.thisTrialN,trials.thisN,trials.thisIndex,trials.ran,mels
1,4.37415,4,19.62701,space,30.770785,space,3.44013,2,1,3.47763,7,3.516005,0,0,0,0,1,practice/practice_1_std.wav,2,10,m,26,15,5,2020-09-24_22h18.27.243,exp_mumufe_builder,2020.2.3,Win32,60,,,,,,,,
,,,,,,,,1,1,2.61698,7,3.054105,0,1,1,1,1,practice/practice_1_dev.wav,1,10,m,26,15,5,2020-09-24_22h18.27.243,exp_mumufe_builder,2020.2.3,Win32,60,,,,,,,,
,,,,,,,,2,1,2.848675,7,4.056355,0,2,2,2,1,practice/practice_2_std.wav,2,10,m,26,15,5,2020-09-24_22h18.27.243,exp_mumufe_builder,2020.2.3,Win32,60,,,,,,,,
,,,,,,,,1,1,1.850285,7,0.53357,0,3,3,3,1,practice/practice_2_dev.wav,1,10,m,26,15,5,2020-09-24_22h18.27.243,exp_mumufe_builder,2020.2.3,Win32,60,,,,,,,,
,,,,,,,,1,1,1.64378,6,1.623135,0,4,4,4,1,practice/practice_3_dev.wav,1,10,m,26,15,5,2020-09-24_22h18.27.243,exp_mumufe_builder,2020.2.3,Win32,60,,,,,,,,
,,,,,,,,1,1,4.36731,5,5.600605,,,,,,,,10,m,26,15,5,2020-09-24_22h18.27.243,exp_mumufe_builder,2020.2.3,Win32,60,space,3.25464,0,0,0,40,1,mels/tonal_5a_std.wav
,,,,,,,,2,0,4.085585,3,2.959375,,,,,,,,10,m,26,15,5,2020-09-24_22h18.27.243,exp_mumufe_builder,2020.2.3,Win32,60,,,0,1,1,23,1,mels/atonal_6b_dev.wav
,,,,,,,,1,1,3.100935,5,4.775095,,,,,,,,10,m,26,15,5,2020-09-24_22h18.27.243,exp_mumufe_builder,2020.2.3,Win32,60,,,0,2,2,42,1,mels/tonal_5b_std.wav
,,,,,,,,1,1,1.45457,6,2.419205,,,,,,,,10,m,26,15,5,2020-09-24_22h18.27.243,exp_mumufe_builder,2020.2.3,Win32,60,,,0,3,3,13,1,mels/atonal_4a_dev.wav
,,,,,,,,1,1,1.699995,6,2.27581,,,,,,,,10,m,26,15,5,2020-09-24_22h18.27.243,exp_mumufe_builder,2020.2.3,Win32,60,,,0,4,4,41,1,mels/tonal_5a_dev.wav
,,,,,,,,1,1,2.492145,5,2.449765,,,,,,,,10,m,26,15,5,2020-09-24_22h18.27.243,exp_mumufe_builder,2020.2.3,Win32,60,,,0,5,5,35,1,mels/tonal_3b_dev.wav
,,,,,,,,2,0,1.55627,4,3.416195,,,,,,,,10,m,26,15,5,2020-09-24_22h18.27.243,exp_mumufe_builder,2020.2.3,Win32,60,,,0,6,6,46,1,mels/tonal_6b_std.wav
,,,,,,,,2,0,2.13306,3,2.599555,,,,,,,,10,m,26,15,5,2020-09-24_22h18.27.243,exp_mumufe_builder,2020.2.3,Win32,60,,,0,7,7,22,1,mels/atonal_6b_std.wav
,,,,,,,,2,0,1.150065,4,2.509355,,,,,,,,10,m,26,15,5,2020-09-24_22h18.27.243,exp_mumufe_builder,2020.2.3,Win32,60,,,0,8,8,37,1,mels/tonal_4a_dev.wav
,,,,,,,,1,1,0.90321,4,1.99993,,,,,,,,10,m,26,15,5,2020-09-24_22h18.27.243,exp_mumufe_builder,2020.2.3,Win32,60,,,0,9,9,39,1,mels/tonal_4b_dev.wav
,,,,,,,,2,0,2.69025,2,1.19454,,,,,,,,10,m,26,15,5,2020-09-24_22h18.27.243,exp_mumufe_builder,2020.2.3,Win32,60,,,0,10,10,25,1,mels/tonal_1a_dev.wav
,,,,,,,,1,1,1.63908,4,2.658775,,,,,,,,10,m,26,15,5,2020-09-24_22h18.27.243,exp_mumufe_builder,2020.2.3,Win32,60,,,0,11,11,27,1,mels/tonal_1b_dev.wav
,,,,,,,,2,0,1.78441,5,3.682625,,,,,,,,10,m,26,15,5,2020-09-24_22h18.27.243,exp_mumufe_builder,2020.2.3,Win32,60,,,0,12,12,12,1,mels/atonal_4a_std.wav
,,,,,,,,2,0,1.93471,5,1.69001,,,,,,,,10,m,26,15,5,2020-09-24_22h18.27.243,exp_mumufe_builder,2020.2.3,Win32,60,,,0,13,13,18,1,mels/atonal_5b_std.wav
,,,,,,,,2,0,3.268245,6,2.999865,,,,,,,,10,m,26,15,5,2020-09-24_22h18.27.243,exp_mumufe_builder,2020.2.3,Win32,60,,,0,14,14,30,1,mels/tonal_2b_std.wav
,,,,,,,,2,0,2.25103,7,3.9846,,,,,,,,10,m,26,15,5,2020-09-24_22h18.27.243,exp_mumufe_builder,2020.2.3,Win32,60,,,0,15,15,38,1,mels/tonal_4b_std.wav
,,,,,,,,2,0,4.06687,5,1.683335,,,,,,,,10,m,26,15,5,2020-09-24_22h18.27.243,exp_mumufe_builder,2020.2.3,Win32,60,,,0,16,16,44,1,mels/tonal_6a_std.wav
,,,,,,,,1,1,0.662115,5,1.516555,,,,,,,,10,m,26,15,5,2020-09-24_22h18.27.243,exp_mumufe_builder,2020.2.3,Win32,60,,,0,17,17,7,1,mels/atonal_2b_dev.wav
,,,,,,,,1,1,0.74567,6,0.722675,,,,,,,,10,m,26,15,5,2020-09-24_22h18.27.243,exp_mumufe_builder,2020.2.3,Win32,60,,,0,18,18,47,1,mels/tonal_6b_dev.wav
,,,,,,,,1,1,1.265555,6,1.8002,,,,,,,,10,m,26,15,5,2020-09-24_22h18.27.243,exp_mumufe_builder,2020.2.3,Win32,60,,,0,19,19,29,1,mels/tonal_2a_dev.wav
,,,,,,,,2,0,4.79918,3,1.61658,,,,,,,,10,m,26,15,5,2020-09-24_22h18.27.243,exp_mumufe_builder,2020.2.3,Win32,60,,,0,20,20,26,1,mels/tonal_1b_std.wav
,,,,,,,,2,0,3.73326,2,1.633035,,,,,,,,10,m,26,15,5,2020-09-24_22h18.27.243,exp_mumufe_builder,2020.2.3,Win32,60,,,0,21,21,2,1,mels/atonal_1b_std.wav
,,,,,,,,2,0,1.250555,7,2.30016,,,,,,,,10,m,26,15,5,2020-09-24_22h18.27.243,exp_mumufe_builder,2020.2.3,Win32,60,,,0,22,22,36,1,mels/tonal_4a_std.wav
,,,,,,,,2,0,2.86038,2,1.755135,,,,,,,,10,m,26,15,5,2020-09-24_22h18.27.243,exp_mumufe_builder,2020.2.3,Win32,60,,,0,23,23,3,1,mels/atonal_1b_dev.wav
,,,,,,,,2,0,4.18219,1,1.500185,,,,,,,,10,m,26,15,5,2020-09-24_22h18.27.243,exp_mumufe_builder,2020.2.3,Win32,60,,,0,24,24,4,1,mels/atonal_2a_std.wav
,,,,,,,,2,0,1.651405,3,2.78539,,,,,,,,10,m,26,15,5,2020-09-24_22h18.27.243,exp_mumufe_builder,2020.2.3,Win32,60,,,0,25,25,8,1,mels/atonal_3a_std.wav
,,,,,,,,2,0,1.910495,3,1.667535,,,,,,,,10,m,26,15,5,2020-09-24_22h18.27.243,exp_mumufe_builder,2020.2.3,Win32,60,,,0,26,26,14,1,mels/atonal_4b_std.wav
,,,,,,,,1,1,0.817075,5,1.471745,,,,,,,,10,m,26,15,5,2020-09-24_22h18.27.243,exp_mumufe_builder,2020.2.3,Win32,60,,,0,27,27,21,1,mels/atonal_6a_dev.wav
,,,,,,,,2,0,2.01662,4,1.511715,,,,,,,,10,m,26,15,5,2020-09-24_22h18.27.243,exp_mumufe_builder,2020.2.3,Win32,60,,,0,28,28,0,1,mels/atonal_1a_std.wav
,,,,,,,,1,1,0.97226,5,1.616405,,,,,,,,10,m,26,15,5,2020-09-24_22h18.27.243,exp_mumufe_builder,2020.2.3,Win32,60,,,0,29,29,19,1,mels/atonal_5b_dev.wav
,,,,,,,,2,0,1.299835,5,2.15417,,,,,,,,10,m,26,15,5,2020-09-24_22h18.27.243,exp_mumufe_builder,2020.2.3,Win32,60,,,0,30,30,45,1,mels/tonal_6a_dev.wav
,,,,,,,,1,1,0.85875,5,1.69014,,,,,,,,10,m,26,15,5,2020-09-24_22h18.27.243,exp_mumufe_builder,2020.2.3,Win32,60,,,0,31,31,1,1,mels/atonal_1a_dev.wav
,,,,,,,,2,0,1.068445,7,0.811265,,,,,,,,10,m,26,15,5,2020-09-24_22h18.27.243,exp_mumufe_builder,2020.2.3,Win32,60,,,0,32,32,32,1,mels/tonal_3a_std.wav
,,,,,,,,2,0,1.741895,5,1.235415,,,,,,,,10,m,26,15,5,2020-09-24_22h18.27.243,exp_mumufe_builder,2020.2.3,Win32,60,,,0,33,33,43,1,mels/tonal_5b_dev.wav
,,,,,,,,2,0,3.70908,2,2.150855,,,,,,,,10,m,26,15,5,2020-09-24_22h18.27.243,exp_mumufe_builder,2020.2.3,Win32,60,,,0,34,34,15,1,mels/atonal_4b_dev.wav
,,,,,,,,2,0,1.51612,7,1.07822,,,,,,,,10,m,26,15,5,2020-09-24_22h18.27.243,exp_mumufe_builder,2020.2.3,Win32,60,,,0,35,35,34,1,mels/tonal_3b_std.wav
,,,,,,,,2,0,3.027015,4,2.05443,,,,,,,,10,m,26,15,5,2020-09-24_22h18.27.243,exp_mumufe_builder,2020.2.3,Win32,60,,,0,36,36,11,1,mels/atonal_3b_dev.wav
,,,,,,,,2,0,1.078625,5,1.234005,,,,,,,,10,m,26,15,5,2020-09-24_22h18.27.243,exp_mumufe_builder,2020.2.3,Win32,60,,,0,37,37,24,1,mels/tonal_1a_std.wav
,,,,,,,,2,0,0.924075,5,2.0237,,,,,,,,10,m,26,15,5,2020-09-24_22h18.27.243,exp_mumufe_builder,2020.2.3,Win32,60,,,0,38,38,28,1,mels/tonal_2a_std.wav
,,,,,,,,2,0,4.318385,4,3.22399,,,,,,,,10,m,26,15,5,2020-09-24_22h18.27.243,exp_mumufe_builder,2020.2.3,Win32,60,,,0,39,39,16,1,mels/atonal_5a_std.wav
,,,,,,,,2,0,3.94946,3,2.816625,,,,,,,,10,m,26,15,5,2020-09-24_22h18.27.243,exp_mumufe_builder,2020.2.3,Win32,60,,,0,40,40,20,1,mels/atonal_6a_std.wav
,,,,,,,,2,0,1.49939,5,2.283195,,,,,,,,10,m,26,15,5,2020-09-24_22h18.27.243,exp_mumufe_builder,2020.2.3,Win32,60,,,0,41,41,10,1,mels/atonal_3b_std.wav
,,,,,,,,2,0,1.16154,5,1.106495,,,,,,,,10,m,26,15,5,2020-09-24_22h18.27.243,exp_mumufe_builder,2020.2.3,Win32,60,,,0,42,42,6,1,mels/atonal_2b_std.wav
,,,,,,,,1,1,0.583055,6,2.82021,,,,,,,,10,m,26,15,5,2020-09-24_22h18.27.243,exp_mumufe_builder,2020.2.3,Win32,60,,,0,43,43,33,1,mels/tonal_3a_dev.wav
,,,,,,,,1,1,1.683275,3,0.9174,,,,,,,,10,m,26,15,5,2020-09-24_22h18.27.243,exp_mumufe_builder,2020.2.3,Win32,60,,,0,44,44,17,1,mels/atonal_5a_dev.wav
,,,,,,,,1,1,0.833215,5,1.16741,,,,,,,,10,m,26,15,5,2020-09-24_22h18.27.243,exp_mumufe_builder,2020.2.3,Win32,60,,,0,45,45,5,1,mels/atonal_2a_dev.wav
,,,,,,,,2,0,9.47071,4,1.899905,,,,,,,,10,m,26,15,5,2020-09-24_22h18.27.243,exp_mumufe_builder,2020.2.3,Win32,60,,,0,46,46,31,1,mels/tonal_2b_dev.wav
,,,,,,,,1,1,5.89882,3,2.350155,,,,,,,,10,m,26,15,5,2020-09-24_22h18.27.243,exp_mumufe_builder,2020.2.3,Win32,60,,,0,47,47,9,1,mels/atonal_3a_dev.wav
