"sub","age","sex","yomt","somt","prof","style","trial_No","trial_idx","mel","resp","resp_rt","conf","conf_rt","cond","deviance","dev","acc"
1,25,"f","4","5",2,4,0,18,"5b",1,3.787555,5,1.30246,"atonal","std",2,0
1,25,"f","4","5",2,4,1,46,"6b",2,1.65592,7,0.787065,"tonal","std",2,1
1,25,"f","4","5",2,4,2,35,"3b",1,1.586625,7,2.836145,"tonal","dev",1,1
1,25,"f","4","5",2,4,3,43,"5b",1,0.704875,7,0.901665,"tonal","dev",1,1
1,25,"f","4","5",2,4,4,20,"6a",1,4.269975,4,1.20468,"atonal","std",2,0
1,25,"f","4","5",2,4,5,26,"1b",2,1.77244,6,1.185755,"tonal","std",2,1
1,25,"f","4","5",2,4,6,16,"5a",1,2.35557,3,0.88979,"atonal","std",2,0
1,25,"f","4","5",2,4,7,28,"2a",2,1.54387,7,1.01918,"tonal","std",2,1
1,25,"f","4","5",2,4,8,29,"2a",1,0.63709,7,0.768815,"tonal","dev",1,1
1,25,"f","4","5",2,4,9,41,"5a",1,0.81995,7,0.6899,"tonal","dev",1,1
1,25,"f","4","5",2,4,10,17,"5a",1,5.020665,3,6.74741,"atonal","dev",1,1
1,25,"f","4","5",2,4,11,37,"4a",1,0.85042,5,1.452625,"tonal","dev",1,1
1,25,"f","4","5",2,4,12,1,"1a",1,1.535875,5,0.90712,"atonal","dev",1,1
1,25,"f","4","5",2,4,13,42,"5b",2,1.318405,4,0.65262,"tonal","std",2,1
1,25,"f","4","5",2,4,14,10,"3b",1,1.60303,5,0.969085,"atonal","std",2,0
1,25,"f","4","5",2,4,15,14,"4b",1,1.6348,4,3.058875,"atonal","std",2,0
1,25,"f","4","5",2,4,16,22,"6b",1,3.23784,3,0.40195,"atonal","std",2,0
1,25,"f","4","5",2,4,17,34,"3b",2,0.952065,7,0.76893,"tonal","std",2,1
1,25,"f","4","5",2,4,18,2,"1b",1,1.48588,6,1.001545,"atonal","std",2,0
1,25,"f","4","5",2,4,19,44,"6a",2,3.803785,3,1.48572,"tonal","std",2,1
1,25,"f","4","5",2,4,20,24,"1a",2,2.104515,5,0.807715,"tonal","std",2,1
1,25,"f","4","5",2,4,21,39,"4b",1,0.638415,6,0.652745,"tonal","dev",1,1
1,25,"f","4","5",2,4,22,27,"1b",1,1.653105,7,0.635865,"tonal","dev",1,1
1,25,"f","4","5",2,4,23,32,"3a",2,1.817445,4,1.25248,"tonal","std",2,1
1,25,"f","4","5",2,4,24,40,"5a",1,0.567825,3,3.671305,"tonal","std",2,0
1,25,"f","4","5",2,4,25,0,"1a",1,3.103285,4,1.235805,"atonal","std",2,0
1,25,"f","4","5",2,4,26,12,"4a",1,1.468725,5,0.620205,"atonal","std",2,0
1,25,"f","4","5",2,4,27,33,"3a",1,0.86821,7,0.73613,"tonal","dev",1,1
1,25,"f","4","5",2,4,28,4,"2a",1,1.635695,5,0.768625,"atonal","std",2,0
1,25,"f","4","5",2,4,29,45,"6a",1,0.75145,7,0.669605,"tonal","dev",1,1
1,25,"f","4","5",2,4,30,7,"2b",1,2.551915,6,0.63487,"atonal","dev",1,1
1,25,"f","4","5",2,4,31,11,"3b",1,0.902415,6,0.53529,"atonal","dev",1,1
1,25,"f","4","5",2,4,32,19,"5b",2,0.884955,6,1.051,"atonal","dev",1,0
1,25,"f","4","5",2,4,33,47,"6b",2,0.50219,6,0.87003,"tonal","dev",1,0
1,25,"f","4","5",2,4,34,9,"3a",1,0.718645,6,0.75129,"atonal","dev",1,1
1,25,"f","4","5",2,4,35,31,"2b",1,0.7526,7,0.7353,"tonal","dev",1,1
1,25,"f","4","5",2,4,36,38,"4b",2,0.784775,7,0.668125,"tonal","std",2,1
1,25,"f","4","5",2,4,37,30,"2b",2,0.96819,7,0.66957,"tonal","std",2,1
1,25,"f","4","5",2,4,38,5,"2a",1,0.80264,6,1.336565,"atonal","dev",1,1
1,25,"f","4","5",2,4,39,36,"4a",2,0.56796,5,0.685025,"tonal","std",2,1
1,25,"f","4","5",2,4,40,23,"6b",2,1.93528,3,2.239185,"atonal","dev",1,0
1,25,"f","4","5",2,4,41,6,"2b",2,2.12232,2,1.052865,"atonal","std",2,1
1,25,"f","4","5",2,4,42,8,"3a",2,2.06889,1,1.301375,"atonal","std",2,1
1,25,"f","4","5",2,4,43,15,"4b",1,2.005335,3,1.71882,"atonal","dev",1,1
1,25,"f","4","5",2,4,44,13,"4a",1,1.28585,6,0.985645,"atonal","dev",1,1
1,25,"f","4","5",2,4,45,25,"1a",1,0.80235,7,0.684955,"tonal","dev",1,1
1,25,"f","4","5",2,4,46,3,"1b",1,0.85091,5,0.568935,"atonal","dev",1,1
1,25,"f","4","5",2,4,47,21,"6a",1,0.522205,5,0.53429,"atonal","dev",1,1
2,29,"m","0","0",1,1,0,16,"5a",2,9.818,5,6.556,"atonal","std",2,1
2,29,"m","0","0",1,1,1,7,"2b",1,3.05,6,5.168,"atonal","dev",1,1
2,29,"m","0","0",1,1,2,22,"6b",2,2.211,4,2.734,"atonal","std",2,1
2,29,"m","0","0",1,1,3,37,"4a",1,1.741,6,1.987,"tonal","dev",1,1
2,29,"m","0","0",1,1,4,34,"3b",2,2.569,4,1.319,"tonal","std",2,1
2,29,"m","0","0",1,1,5,8,"3a",1,8.477,2,7.802,"atonal","std",2,0
2,29,"m","0","0",1,1,6,47,"6b",1,1.506,6,2.183,"tonal","dev",1,1
2,29,"m","0","0",1,1,7,17,"5a",1,1.675,7,1.689,"atonal","dev",1,1
2,29,"m","0","0",1,1,8,11,"3b",1,2.332,7,1.276,"atonal","dev",1,1
2,29,"m","0","0",1,1,9,32,"3a",2,1.533,6,6.388,"tonal","std",2,1
2,29,"m","0","0",1,1,10,30,"2b",2,2.651,6,3.606,"tonal","std",2,1
2,29,"m","0","0",1,1,11,27,"1b",1,1.438,7,1.885,"tonal","dev",1,1
2,29,"m","0","0",1,1,12,29,"2a",1,4.543,7,2.05,"tonal","dev",1,1
2,29,"m","0","0",1,1,13,45,"6a",1,1.453,5,2.367,"tonal","dev",1,1
2,29,"m","0","0",1,1,14,35,"3b",1,1.368,4,4.605,"tonal","dev",1,1
2,29,"m","0","0",1,1,15,9,"3a",1,2.467,3,4.772,"atonal","dev",1,1
2,29,"m","0","0",1,1,16,18,"5b",2,1.461,4,6.906,"atonal","std",2,1
2,29,"m","0","0",1,1,17,6,"2b",2,1.52,5,2.255,"atonal","std",2,1
2,29,"m","0","0",1,1,18,42,"5b",2,4.352,5,2.037,"tonal","std",2,1
2,29,"m","0","0",1,1,19,28,"2a",2,2.667,6,1.267,"tonal","std",2,1
2,29,"m","0","0",1,1,20,26,"1b",2,1.268,6,0.921,"tonal","std",2,1
2,29,"m","0","0",1,1,21,0,"1a",2,1.673,5,1.839,"atonal","std",2,1
2,29,"m","0","0",1,1,22,39,"4b",1,1.403,7,2.218,"tonal","dev",1,1
2,29,"m","0","0",1,1,23,12,"4a",2,5.268,4,1.834,"atonal","std",2,1
2,29,"m","0","0",1,1,24,23,"6b",1,2.052,3,3.085,"atonal","dev",1,1
2,29,"m","0","0",1,1,25,41,"5a",1,3.485,3,1.267,"tonal","dev",1,1
2,29,"m","0","0",1,1,26,36,"4a",2,3.736,6,2.907,"tonal","std",2,1
2,29,"m","0","0",1,1,27,14,"4b",2,1.402,5,1.8,"atonal","std",2,1
2,29,"m","0","0",1,1,28,40,"5a",2,1.752,6,3.334,"tonal","std",2,1
2,29,"m","0","0",1,1,29,3,"1b",1,1.485,7,1.618,"atonal","dev",1,1
2,29,"m","0","0",1,1,30,4,"2a",2,1.528,5,1.521,"atonal","std",2,1
2,29,"m","0","0",1,1,31,20,"6a",2,3.6,4,4.184,"atonal","std",2,1
2,29,"m","0","0",1,1,32,15,"4b",1,3.834,7,1.753,"atonal","dev",1,1
2,29,"m","0","0",1,1,33,25,"1a",1,3.239,6,2.368,"tonal","dev",1,1
2,29,"m","0","0",1,1,34,1,"1a",2,9.701,2,8.517,"atonal","dev",1,0
2,29,"m","0","0",1,1,35,43,"5b",1,1.795,7,2.201,"tonal","dev",1,1
2,29,"m","0","0",1,1,36,19,"5b",1,2.627,7,2.471,"atonal","dev",1,1
2,29,"m","0","0",1,1,37,13,"4a",1,1.508,7,1.487,"atonal","dev",1,1
2,29,"m","0","0",1,1,38,24,"1a",2,2.177,6,1.801,"tonal","std",2,1
2,29,"m","0","0",1,1,39,2,"1b",2,1.535,6,2.618,"atonal","std",2,1
2,29,"m","0","0",1,1,40,10,"3b",2,1.344,6,1.978,"atonal","std",2,1
2,29,"m","0","0",1,1,41,33,"3a",1,1.201,7,1.618,"tonal","dev",1,1
2,29,"m","0","0",1,1,42,46,"6b",2,3.959,7,1.386,"tonal","std",2,1
2,29,"m","0","0",1,1,43,21,"6a",2,7.926,4,1.977,"atonal","dev",1,0
2,29,"m","0","0",1,1,44,44,"6a",2,1.521,5,1.819,"tonal","std",2,1
2,29,"m","0","0",1,1,45,38,"4b",2,1.177,6,2.285,"tonal","std",2,1
2,29,"m","0","0",1,1,46,31,"2b",1,1.138,7,5.454,"tonal","dev",1,1
2,29,"m","0","0",1,1,47,5,"2a",1,2.484,2,6.183,"atonal","dev",1,1
3,22,"f","12","5",2,4,0,17,"5a",2,1.765,5,3.987,"atonal","dev",1,0
3,22,"f","12","5",2,4,1,6,"2b",2,2.702,5,2.581,"atonal","std",2,1
3,22,"f","12","5",2,4,2,40,"5a",2,5.323,3,3.891,"tonal","std",2,1
3,22,"f","12","5",2,4,3,46,"6b",1,3.301,3,2.001,"tonal","std",2,0
3,22,"f","12","5",2,4,4,19,"5b",1,0.921,3,2.574,"atonal","dev",1,1
3,22,"f","12","5",2,4,5,29,"2a",1,2.066,5,1.779,"tonal","dev",1,1
3,22,"f","12","5",2,4,6,4,"2a",2,8.175,3,1.07,"atonal","std",2,1
3,22,"f","12","5",2,4,7,10,"3b",2,1.341,5,1.505,"atonal","std",2,1
3,22,"f","12","5",2,4,8,31,"2b",2,1.103,5,1.358,"tonal","dev",1,0
3,22,"f","12","5",2,4,9,0,"1a",1,2.015,3,1.732,"atonal","std",2,0
3,22,"f","12","5",2,4,10,20,"6a",1,1.174,3,1.598,"atonal","std",2,0
3,22,"f","12","5",2,4,11,44,"6a",2,1.307,5,3.035,"tonal","std",2,1
3,22,"f","12","5",2,4,12,28,"2a",2,1.162,5,1.323,"tonal","std",2,1
3,22,"f","12","5",2,4,13,32,"3a",2,1.257,5,1.095,"tonal","std",2,1
3,22,"f","12","5",2,4,14,18,"5b",2,3.591,5,1.22,"atonal","std",2,1
3,22,"f","12","5",2,4,15,45,"6a",2,0.846,3,1.24,"tonal","dev",1,0
3,22,"f","12","5",2,4,16,13,"4a",1,1.378,3,1.405,"atonal","dev",1,1
3,22,"f","12","5",2,4,17,3,"1b",1,1.147,3,1.444,"atonal","dev",1,1
3,22,"f","12","5",2,4,18,38,"4b",2,0.724,5,1.19,"tonal","std",2,1
3,22,"f","12","5",2,4,19,23,"6b",1,0.836,3,1.123,"atonal","dev",1,1
3,22,"f","12","5",2,4,20,39,"4b",2,1.04,5,0.97,"tonal","dev",1,0
3,22,"f","12","5",2,4,21,22,"6b",1,1.181,3,1.124,"atonal","std",2,0
3,22,"f","12","5",2,4,22,16,"5a",2,3.65,4,1.069,"atonal","std",2,1
3,22,"f","12","5",2,4,23,11,"3b",1,2.962,3,1.056,"atonal","dev",1,1
3,22,"f","12","5",2,4,24,33,"3a",1,1.086,3,11.513,"tonal","dev",1,1
3,22,"f","12","5",2,4,25,43,"5b",1,3.93,3,1.578,"tonal","dev",1,1
3,22,"f","12","5",2,4,26,9,"3a",2,3.286,3,0.409,"atonal","dev",1,0
3,22,"f","12","5",2,4,27,7,"2b",1,0.772,5,1.572,"atonal","dev",1,1
3,22,"f","12","5",2,4,28,12,"4a",2,2.472,3,1.59,"atonal","std",2,1
3,22,"f","12","5",2,4,29,47,"6b",1,1.564,5,1.605,"tonal","dev",1,1
3,22,"f","12","5",2,4,30,37,"4a",2,6.462,3,0.944,"tonal","dev",1,0
3,22,"f","12","5",2,4,31,41,"5a",1,1.344,5,1.254,"tonal","dev",1,1
3,22,"f","12","5",2,4,32,26,"1b",2,2.697,5,1.575,"tonal","std",2,1
3,22,"f","12","5",2,4,33,5,"2a",2,1.662,3,0.57,"atonal","dev",1,0
3,22,"f","12","5",2,4,34,2,"1b",1,3.175,3,1.422,"atonal","std",2,0
3,22,"f","12","5",2,4,35,15,"4b",2,3.142,3,1.039,"atonal","dev",1,0
3,22,"f","12","5",2,4,36,35,"3b",1,2.174,5,0.711,"tonal","dev",1,1
3,22,"f","12","5",2,4,37,25,"1a",1,1.086,5,1.645,"tonal","dev",1,1
3,22,"f","12","5",2,4,38,24,"1a",2,2.197,3,0.819,"tonal","std",2,1
3,22,"f","12","5",2,4,39,21,"6a",2,2.096,3,0.945,"atonal","dev",1,0
3,22,"f","12","5",2,4,40,1,"1a",1,1.069,3,0.936,"atonal","dev",1,1
3,22,"f","12","5",2,4,41,42,"5b",2,1.045,6,1.515,"tonal","std",2,1
3,22,"f","12","5",2,4,42,36,"4a",2,2.324,6,0.711,"tonal","std",2,1
3,22,"f","12","5",2,4,43,14,"4b",2,1.342,5,0.939,"atonal","std",2,1
3,22,"f","12","5",2,4,44,8,"3a",2,4.872,3,1.294,"atonal","std",2,1
3,22,"f","12","5",2,4,45,34,"3b",2,1.509,6,0.886,"tonal","std",2,1
3,22,"f","12","5",2,4,46,30,"2b",2,1.397,5,0.718,"tonal","std",2,1
3,22,"f","12","5",2,4,47,27,"1b",1,0.848,5,1.227,"tonal","dev",1,1
4,25,"m","1","6",1,5,0,43,"5b",1,0.607535,4,3.19973,"tonal","dev",1,1
4,25,"m","1","6",1,5,1,17,"5a",1,2.23636,4,1.188845,"atonal","dev",1,1
4,25,"m","1","6",1,5,2,40,"5a",2,1.39121,7,2.509105,"tonal","std",2,1
4,25,"m","1","6",1,5,3,24,"1a",2,2.28497,5,5.01798,"tonal","std",2,1
4,25,"m","1","6",1,5,4,47,"6b",2,5.929145,5,1.121275,"tonal","dev",1,0
4,25,"m","1","6",1,5,5,45,"6a",1,0.88725,5,1.85438,"tonal","dev",1,1
4,25,"m","1","6",1,5,6,5,"2a",1,0.667345,6,0.858805,"atonal","dev",1,1
4,25,"m","1","6",1,5,7,20,"6a",2,5.889255,4,1.77087,"atonal","std",2,1
4,25,"m","1","6",1,5,8,4,"2a",1,3.245255,3,1.40185,"atonal","std",2,0
4,25,"m","1","6",1,5,9,21,"6a",2,1.52605,6,0.752305,"atonal","dev",1,0
4,25,"m","1","6",1,5,10,46,"6b",2,1.528385,6,0.553175,"tonal","std",2,1
4,25,"m","1","6",1,5,11,29,"2a",1,0.47798,6,0.90984,"tonal","dev",1,1
4,25,"m","1","6",1,5,12,36,"4a",2,1.517765,5,1.935625,"tonal","std",2,1
4,25,"m","1","6",1,5,13,34,"3b",2,2.09951,3,0.85482,"tonal","std",2,1
4,25,"m","1","6",1,5,14,44,"6a",2,2.34988,5,1.3008,"tonal","std",2,1
4,25,"m","1","6",1,5,15,18,"5b",2,2.126045,5,0.70656,"atonal","std",2,1
4,25,"m","1","6",1,5,16,10,"3b",2,2.13019,5,0.31729,"atonal","std",2,1
4,25,"m","1","6",1,5,17,41,"5a",2,0.600625,7,0.651325,"tonal","dev",1,0
4,25,"m","1","6",1,5,18,12,"4a",1,0.87106,2,1.29561,"atonal","std",2,0
4,25,"m","1","6",1,5,19,33,"3a",2,1.456055,6,0.53598,"tonal","dev",1,0
4,25,"m","1","6",1,5,20,38,"4b",2,9.876965,5,3.868185,"tonal","std",2,1
4,25,"m","1","6",1,5,21,8,"3a",1,0.533535,7,0.200815,"atonal","std",2,0
4,25,"m","1","6",1,5,22,26,"1b",2,0.39279,5,2.068065,"tonal","std",2,1
4,25,"m","1","6",1,5,23,32,"3a",2,0.47655,7,0.25446,"tonal","std",2,1
4,25,"m","1","6",1,5,24,22,"6b",1,0.446405,5,1.222945,"atonal","std",2,0
4,25,"m","1","6",1,5,25,30,"2b",2,0.49406,6,0.4954,"tonal","std",2,1
4,25,"m","1","6",1,5,26,23,"6b",1,0.444165,5,0.185065,"atonal","dev",1,1
4,25,"m","1","6",1,5,27,2,"1b",1,4.944835,2,0.25305,"atonal","std",2,0
4,25,"m","1","6",1,5,28,14,"4b",1,0.53559,2,0.195945,"atonal","std",2,0
4,25,"m","1","6",1,5,29,31,"2b",2,3.550295,3,1.65042,"tonal","dev",1,0
4,25,"m","1","6",1,5,30,42,"5b",2,0.768575,4,1.003915,"tonal","std",2,1
4,25,"m","1","6",1,5,31,35,"3b",2,4.29183,4,1.089075,"tonal","dev",1,0
4,25,"m","1","6",1,5,32,6,"2b",1,0.87751,5,1.239885,"atonal","std",2,0
4,25,"m","1","6",1,5,33,19,"5b",2,1.89164,3,0.46713,"atonal","dev",1,0
4,25,"m","1","6",1,5,34,25,"1a",2,3.81159,4,2.6345,"tonal","dev",1,0
4,25,"m","1","6",1,5,35,7,"2b",1,2.222815,4,0.95164,"atonal","dev",1,1
4,25,"m","1","6",1,5,36,37,"4a",2,0.678725,5,1.279375,"tonal","dev",1,0
4,25,"m","1","6",1,5,37,9,"3a",1,0.384465,4,4.017075,"atonal","dev",1,1
4,25,"m","1","6",1,5,38,16,"5a",1,1.877435,3,0.58378,"atonal","std",2,0
4,25,"m","1","6",1,5,39,28,"2a",1,2.84403,2,0.641065,"tonal","std",2,0
4,25,"m","1","6",1,5,40,11,"3b",1,0.918305,3,1.23411,"atonal","dev",1,1
4,25,"m","1","6",1,5,41,13,"4a",1,4.710785,3,0.27149,"atonal","dev",1,1
4,25,"m","1","6",1,5,42,39,"4b",2,0.40096,7,0.15865,"tonal","dev",1,0
4,25,"m","1","6",1,5,43,27,"1b",1,0.36607,7,0.14193,"tonal","dev",1,1
4,25,"m","1","6",1,5,44,15,"4b",2,11.31322,3,0.24214,"atonal","dev",1,0
4,25,"m","1","6",1,5,45,3,"1b",2,3.033925,5,1.078665,"atonal","dev",1,0
4,25,"m","1","6",1,5,46,0,"1a",2,1.01854,5,0.729415,"atonal","std",2,1
4,25,"m","1","6",1,5,47,1,"1a",2,1.38823,4,1.5008,"atonal","dev",1,0
5,29,"m","0","0",1,1,0,33,"3a",2,13.199,5,4.443,"tonal","dev",1,0
5,29,"m","0","0",1,1,1,21,"6a",2,20.605,3,5.074,"atonal","dev",1,0
5,29,"m","0","0",1,1,2,39,"4b",2,2.721,6,4.167,"tonal","dev",1,0
5,29,"m","0","0",1,1,3,46,"6b",2,4.084,6,1.792,"tonal","std",2,1
5,29,"m","0","0",1,1,4,5,"2a",2,4.886,3,4.536,"atonal","dev",1,0
5,29,"m","0","0",1,1,5,43,"5b",2,3.452,4,3.035,"tonal","dev",1,0
5,29,"m","0","0",1,1,6,6,"2b",2,2.509,3,4.018,"atonal","std",2,1
5,29,"m","0","0",1,1,7,13,"4a",2,2.637,4,2.185,"atonal","dev",1,0
5,29,"m","0","0",1,1,8,9,"3a",2,5.238,3,3.643,"atonal","dev",1,0
5,29,"m","0","0",1,1,9,0,"1a",2,5.484,5,2.505,"atonal","std",2,1
5,29,"m","0","0",1,1,10,47,"6b",1,1.408,6,2.151,"tonal","dev",1,1
5,29,"m","0","0",1,1,11,4,"2a",2,1.991,5,1.826,"atonal","std",2,1
5,29,"m","0","0",1,1,12,28,"2a",2,1.852,7,1.904,"tonal","std",2,1
5,29,"m","0","0",1,1,13,18,"5b",2,1.701,5,1.427,"atonal","std",2,1
5,29,"m","0","0",1,1,14,41,"5a",1,4.724,2,1.67,"tonal","dev",1,1
5,29,"m","0","0",1,1,15,17,"5a",2,2.522,5,1.606,"atonal","dev",1,0
5,29,"m","0","0",1,1,16,25,"1a",1,7.934,2,1.607,"tonal","dev",1,1
5,29,"m","0","0",1,1,17,11,"3b",2,4.79,3,3.15,"atonal","dev",1,0
5,29,"m","0","0",1,1,18,8,"3a",2,6.484,2,2.253,"atonal","std",2,1
5,29,"m","0","0",1,1,19,2,"1b",2,6.4,5,1.91,"atonal","std",2,1
5,29,"m","0","0",1,1,20,23,"6b",2,2.319,6,3.884,"atonal","dev",1,0
5,29,"m","0","0",1,1,21,45,"6a",2,1.925,6,1.724,"tonal","dev",1,0
5,29,"m","0","0",1,1,22,37,"4a",2,2.401,5,1.552,"tonal","dev",1,0
5,29,"m","0","0",1,1,23,12,"4a",2,1.955,6,1.439,"atonal","std",2,1
5,29,"m","0","0",1,1,24,44,"6a",2,1.804,7,2.422,"tonal","std",2,1
5,29,"m","0","0",1,1,25,15,"4b",2,1.723,6,2.434,"atonal","dev",1,0
5,29,"m","0","0",1,1,26,35,"3b",1,1.502,5,1.772,"tonal","dev",1,1
5,29,"m","0","0",1,1,27,38,"4b",2,1.669,6,2.158,"tonal","std",2,1
5,29,"m","0","0",1,1,28,40,"5a",1,4.822,2,2.45,"tonal","std",2,0
5,29,"m","0","0",1,1,29,32,"3a",2,2.959,5,4.42,"tonal","std",2,1
5,29,"m","0","0",1,1,30,42,"5b",2,2.053,7,1.021,"tonal","std",2,1
5,29,"m","0","0",1,1,31,20,"6a",2,1.591,6,1.186,"atonal","std",2,1
5,29,"m","0","0",1,1,32,7,"2b",1,1.62,3,3.984,"atonal","dev",1,1
5,29,"m","0","0",1,1,33,30,"2b",2,1.835,7,1.235,"tonal","std",2,1
5,29,"m","0","0",1,1,34,27,"1b",1,1.935,7,1.11,"tonal","dev",1,1
5,29,"m","0","0",1,1,35,19,"5b",2,2.384,5,2.352,"atonal","dev",1,0
5,29,"m","0","0",1,1,36,16,"5a",2,1.575,5,2.236,"atonal","std",2,1
5,29,"m","0","0",1,1,37,14,"4b",2,1.883,5,2.42,"atonal","std",2,1
5,29,"m","0","0",1,1,38,34,"3b",2,1.676,7,1.356,"tonal","std",2,1
5,29,"m","0","0",1,1,39,10,"3b",2,2.535,5,2.334,"atonal","std",2,1
5,29,"m","0","0",1,1,40,26,"1b",2,1.602,5,1.935,"tonal","std",2,1
5,29,"m","0","0",1,1,41,22,"6b",2,1.952,5,2.857,"atonal","std",2,1
5,29,"m","0","0",1,1,42,24,"1a",2,1.886,4,5.988,"tonal","std",2,1
5,29,"m","0","0",1,1,43,31,"2b",1,1.801,3,2.567,"tonal","dev",1,1
5,29,"m","0","0",1,1,44,1,"1a",2,1.788,4,1.302,"atonal","dev",1,0
5,29,"m","0","0",1,1,45,36,"4a",2,1.676,7,1.575,"tonal","std",2,1
5,29,"m","0","0",1,1,46,3,"1b",2,4.517,4,3.587,"atonal","dev",1,0
5,29,"m","0","0",1,1,47,29,"2a",1,1.401,7,1.073,"tonal","dev",1,1
6,29,"m","3","10",1,1,0,2,"1b",1,4.515,6,2.734,"atonal","std",2,0
6,29,"m","3","10",1,1,1,7,"2b",1,4.578,6,1.277,"atonal","dev",1,1
6,29,"m","3","10",1,1,2,24,"1a",2,2.859,7,1.927,"tonal","std",2,1
6,29,"m","3","10",1,1,3,34,"3b",2,3.616,7,1.193,"tonal","std",2,1
6,29,"m","3","10",1,1,4,39,"4b",1,2.187,7,1.2,"tonal","dev",1,1
6,29,"m","3","10",1,1,5,26,"1b",2,1.804,7,0.551,"tonal","std",2,1
6,29,"m","3","10",1,1,6,21,"6a",1,1.971,6,0.602,"atonal","dev",1,1
6,29,"m","3","10",1,1,7,11,"3b",1,4.255,2,1.637,"atonal","dev",1,1
6,29,"m","3","10",1,1,8,47,"6b",1,3.943,5,2.545,"tonal","dev",1,1
6,29,"m","3","10",1,1,9,10,"3b",2,1.792,5,1.841,"atonal","std",2,1
6,29,"m","3","10",1,1,10,22,"6b",2,2.286,5,2.474,"atonal","std",2,1
6,29,"m","3","10",1,1,11,0,"1a",1,3.401,6,1.636,"atonal","std",2,0
6,29,"m","3","10",1,1,12,12,"4a",2,2.035,5,1.911,"atonal","std",2,1
6,29,"m","3","10",1,1,13,46,"6b",2,1.839,7,1.73,"tonal","std",2,1
6,29,"m","3","10",1,1,14,23,"6b",1,1.973,5,0.793,"atonal","dev",1,1
6,29,"m","3","10",1,1,15,30,"2b",2,5.02,5,1.732,"tonal","std",2,1
6,29,"m","3","10",1,1,16,5,"2a",1,1.762,7,0.616,"atonal","dev",1,1
6,29,"m","3","10",1,1,17,32,"3a",2,1.902,7,0.609,"tonal","std",2,1
6,29,"m","3","10",1,1,18,1,"1a",1,2.066,7,0.642,"atonal","dev",1,1
6,29,"m","3","10",1,1,19,19,"5b",2,1.869,6,0.63,"atonal","dev",1,0
6,29,"m","3","10",1,1,20,41,"5a",1,1.64,7,0.633,"tonal","dev",1,1
6,29,"m","3","10",1,1,21,20,"6a",1,1.734,5,0.464,"atonal","std",2,0
6,29,"m","3","10",1,1,22,33,"3a",1,4.511,7,0.749,"tonal","dev",1,1
6,29,"m","3","10",1,1,23,18,"5b",2,3.635,2,2.387,"atonal","std",2,1
6,29,"m","3","10",1,1,24,6,"2b",2,5.735,5,0.504,"atonal","std",2,1
6,29,"m","3","10",1,1,25,9,"3a",2,8.06,1,1.266,"atonal","dev",1,0
6,29,"m","3","10",1,1,26,44,"6a",1,2.186,7,0.572,"tonal","std",2,0
6,29,"m","3","10",1,1,27,3,"1b",1,1.193,7,0.654,"atonal","dev",1,1
6,29,"m","3","10",1,1,28,35,"3b",1,1.005,7,0.614,"tonal","dev",1,1
6,29,"m","3","10",1,1,29,16,"5a",2,8.084,5,0.551,"atonal","std",2,1
6,29,"m","3","10",1,1,30,40,"5a",2,3.581,5,5.709,"tonal","std",2,1
6,29,"m","3","10",1,1,31,37,"4a",1,1.995,7,1.539,"tonal","dev",1,1
6,29,"m","3","10",1,1,32,43,"5b",1,1.715,7,1.112,"tonal","dev",1,1
6,29,"m","3","10",1,1,33,27,"1b",1,1.61,7,0.555,"tonal","dev",1,1
6,29,"m","3","10",1,1,34,8,"3a",2,1.807,6,0.503,"atonal","std",2,1
6,29,"m","3","10",1,1,35,45,"6a",1,1.208,7,0.595,"tonal","dev",1,1
6,29,"m","3","10",1,1,36,15,"4b",1,1.749,7,0.564,"atonal","dev",1,1
6,29,"m","3","10",1,1,37,28,"2a",2,2.218,5,0.456,"tonal","std",2,1
6,29,"m","3","10",1,1,38,38,"4b",2,1.826,7,0.538,"tonal","std",2,1
6,29,"m","3","10",1,1,39,31,"2b",1,1.656,7,0.573,"tonal","dev",1,1
6,29,"m","3","10",1,1,40,36,"4a",2,1.94,7,0.531,"tonal","std",2,1
6,29,"m","3","10",1,1,41,14,"4b",2,1.319,7,0.531,"atonal","std",2,1
6,29,"m","3","10",1,1,42,42,"5b",2,1.858,7,0.573,"tonal","std",2,1
6,29,"m","3","10",1,1,43,25,"1a",1,2.278,7,0.472,"tonal","dev",1,1
6,29,"m","3","10",1,1,44,4,"2a",2,1.731,7,0.414,"atonal","std",2,1
6,29,"m","3","10",1,1,45,13,"4a",1,1.447,7,0.526,"atonal","dev",1,1
6,29,"m","3","10",1,1,46,17,"5a",1,1.837,6,0.469,"atonal","dev",1,1
6,29,"m","3","10",1,1,47,29,"2a",1,1.933,7,0.454,"tonal","dev",1,1
7,33,"f","6","5",2,2,0,15,"4b",1,1.953,7,5.586,"atonal","dev",1,1
7,33,"f","6","5",2,2,1,39,"4b",1,0.586,7,1.474,"tonal","dev",1,1
7,33,"f","6","5",2,2,2,21,"6a",1,1.151,7,0.968,"atonal","dev",1,1
7,33,"f","6","5",2,2,3,31,"2b",1,0.871,7,1.768,"tonal","dev",1,1
7,33,"f","6","5",2,2,4,5,"2a",1,0.942,7,1.119,"atonal","dev",1,1
7,33,"f","6","5",2,2,5,27,"1b",1,0.855,7,1.335,"tonal","dev",1,1
7,33,"f","6","5",2,2,6,8,"3a",1,2.738,5,2.29,"atonal","std",2,0
7,33,"f","6","5",2,2,7,41,"5a",1,0.601,7,1.068,"tonal","dev",1,1
7,33,"f","6","5",2,2,8,42,"5b",2,1.806,7,2.718,"tonal","std",2,1
7,33,"f","6","5",2,2,9,6,"2b",2,10.602,5,1.919,"atonal","std",2,1
7,33,"f","6","5",2,2,10,19,"5b",1,0.822,7,0.935,"atonal","dev",1,1
7,33,"f","6","5",2,2,11,37,"4a",1,0.718,7,1.635,"tonal","dev",1,1
7,33,"f","6","5",2,2,12,7,"2b",1,3.703,5,1.57,"atonal","dev",1,1
7,33,"f","6","5",2,2,13,46,"6b",2,1.552,7,1.019,"tonal","std",2,1
7,33,"f","6","5",2,2,14,4,"2a",2,2.167,6,1.788,"atonal","std",2,1
7,33,"f","6","5",2,2,15,2,"1b",2,2.643,6,2.134,"atonal","std",2,1
7,33,"f","6","5",2,2,16,10,"3b",2,4.652,6,3.289,"atonal","std",2,1
7,33,"f","6","5",2,2,17,12,"4a",2,2.336,7,1.175,"atonal","std",2,1
7,33,"f","6","5",2,2,18,40,"5a",2,0.951,7,0.921,"tonal","std",2,1
7,33,"f","6","5",2,2,19,33,"3a",1,0.552,7,1.005,"tonal","dev",1,1
7,33,"f","6","5",2,2,20,20,"6a",1,0.735,5,1.402,"atonal","std",2,0
7,33,"f","6","5",2,2,21,0,"1a",2,9.27,2,3.818,"atonal","std",2,1
7,33,"f","6","5",2,2,22,36,"4a",2,1.636,7,1.251,"tonal","std",2,1
7,33,"f","6","5",2,2,23,13,"4a",1,0.684,7,1.519,"atonal","dev",1,1
7,33,"f","6","5",2,2,24,26,"1b",1,3.255,6,0.967,"tonal","std",2,0
7,33,"f","6","5",2,2,25,9,"3a",1,0.492,7,0.837,"atonal","dev",1,1
7,33,"f","6","5",2,2,26,30,"2b",2,1.269,7,0.837,"tonal","std",2,1
7,33,"f","6","5",2,2,27,29,"2a",1,0.385,7,0.957,"tonal","dev",1,1
7,33,"f","6","5",2,2,28,45,"6a",1,0.534,7,1.057,"tonal","dev",1,1
7,33,"f","6","5",2,2,29,22,"6b",1,0.552,7,0.735,"atonal","std",2,0
7,33,"f","6","5",2,2,30,17,"5a",1,3.519,7,0.735,"atonal","dev",1,1
7,33,"f","6","5",2,2,31,14,"4b",2,3.485,2,2.475,"atonal","std",2,1
7,33,"f","6","5",2,2,32,34,"3b",2,1.735,7,1.118,"tonal","std",2,1
7,33,"f","6","5",2,2,33,28,"2a",2,0.621,7,1.318,"tonal","std",2,1
7,33,"f","6","5",2,2,34,3,"1b",1,0.969,7,0.769,"atonal","dev",1,1
7,33,"f","6","5",2,2,35,1,"1a",1,1.219,7,1.034,"atonal","dev",1,1
7,33,"f","6","5",2,2,36,18,"5b",2,4.653,3,3.738,"atonal","std",2,1
7,33,"f","6","5",2,2,37,23,"6b",1,0.418,7,0.854,"atonal","dev",1,1
7,33,"f","6","5",2,2,38,24,"1a",1,0.451,7,0.687,"tonal","std",2,0
7,33,"f","6","5",2,2,39,25,"1a",1,0.791,7,0.902,"tonal","dev",1,1
7,33,"f","6","5",2,2,40,38,"4b",1,0.475,7,0.804,"tonal","std",2,0
7,33,"f","6","5",2,2,41,11,"3b",1,0.652,7,0.752,"atonal","dev",1,1
7,33,"f","6","5",2,2,42,35,"3b",1,0.424,7,0.82,"tonal","dev",1,1
7,33,"f","6","5",2,2,43,43,"5b",1,0.357,7,0.755,"tonal","dev",1,1
7,33,"f","6","5",2,2,44,44,"6a",2,5.886,2,1.235,"tonal","std",2,1
7,33,"f","6","5",2,2,45,16,"5a",2,2.935,5,2.654,"atonal","std",2,1
7,33,"f","6","5",2,2,46,32,"3a",2,1.118,7,1.003,"tonal","std",2,1
7,33,"f","6","5",2,2,47,47,"6b",1,0.433,7,1.225,"tonal","dev",1,1
8,26,"m","0","0",1,1,0,22,"6b",2,6.03,4,10.51,"atonal","std",2,1
8,26,"m","0","0",1,1,1,5,"2a",2,19.461,2,2.221,"atonal","dev",1,0
8,26,"m","0","0",1,1,2,33,"3a",1,7.258,2,1.087,"tonal","dev",1,1
8,26,"m","0","0",1,1,3,4,"2a",2,2.156,3,2.047,"atonal","std",2,1
8,26,"m","0","0",1,1,4,8,"3a",1,1.364,2,2.422,"atonal","std",2,0
8,26,"m","0","0",1,1,5,30,"2b",2,1.73,5,3.649,"tonal","std",2,1
8,26,"m","0","0",1,1,6,6,"2b",2,3.619,3,2.075,"atonal","std",2,1
8,26,"m","0","0",1,1,7,37,"4a",1,14.408,2,1.22,"tonal","dev",1,1
8,26,"m","0","0",1,1,8,26,"1b",2,1.236,4,3.922,"tonal","std",2,1
8,26,"m","0","0",1,1,9,2,"1b",2,6.865,3,1.623,"atonal","std",2,1
8,26,"m","0","0",1,1,10,15,"4b",2,1.42,3,1.712,"atonal","dev",1,0
8,26,"m","0","0",1,1,11,14,"4b",1,5.746,4,2.157,"atonal","std",2,0
8,26,"m","0","0",1,1,12,43,"5b",2,5.255,1,2.282,"tonal","dev",1,0
8,26,"m","0","0",1,1,13,27,"1b",1,1.382,2,0.869,"tonal","dev",1,1
8,26,"m","0","0",1,1,14,13,"4a",1,4.586,2,1.155,"atonal","dev",1,1
8,26,"m","0","0",1,1,15,16,"5a",2,4.571,3,1.452,"atonal","std",2,1
8,26,"m","0","0",1,1,16,32,"3a",2,2.724,4,1.57,"tonal","std",2,1
8,26,"m","0","0",1,1,17,17,"5a",1,3.008,5,1.379,"atonal","dev",1,1
8,26,"m","0","0",1,1,18,28,"2a",2,4.018,2,0.818,"tonal","std",2,1
8,26,"m","0","0",1,1,19,11,"3b",1,0.948,5,5.331,"atonal","dev",1,1
8,26,"m","0","0",1,1,20,31,"2b",2,1.737,3,1.755,"tonal","dev",1,0
8,26,"m","0","0",1,1,21,18,"5b",2,1.695,2,1.22,"atonal","std",2,1
8,26,"m","0","0",1,1,22,25,"1a",2,1.711,1,7.324,"tonal","dev",1,0
8,26,"m","0","0",1,1,23,41,"5a",1,2.415,3,1.053,"tonal","dev",1,1
8,26,"m","0","0",1,1,24,34,"3b",1,4.703,3,0.585,"tonal","std",2,0
8,26,"m","0","0",1,1,25,42,"5b",1,1.539,3,1.894,"tonal","std",2,0
8,26,"m","0","0",1,1,26,12,"4a",1,1.304,3,3.671,"atonal","std",2,0
8,26,"m","0","0",1,1,27,29,"2a",1,0.652,6,2.382,"tonal","dev",1,1
8,26,"m","0","0",1,1,28,24,"1a",1,1.003,6,1.981,"tonal","std",2,0
8,26,"m","0","0",1,1,29,7,"2b",1,0.92,5,1.861,"atonal","dev",1,1
8,26,"m","0","0",1,1,30,36,"4a",2,2.022,3,1.477,"tonal","std",2,1
8,26,"m","0","0",1,1,31,0,"1a",1,15.106,3,1.103,"atonal","std",2,0
8,26,"m","0","0",1,1,32,46,"6b",2,3.436,4,1.597,"tonal","std",2,1
8,26,"m","0","0",1,1,33,23,"6b",1,1.479,4,2.483,"atonal","dev",1,1
8,26,"m","0","0",1,1,34,19,"5b",2,3.124,2,0.943,"atonal","dev",1,0
8,26,"m","0","0",1,1,35,40,"5a",2,1.921,5,2.388,"tonal","std",2,1
8,26,"m","0","0",1,1,36,21,"6a",1,1.309,6,1.078,"atonal","dev",1,1
8,26,"m","0","0",1,1,37,45,"6a",1,0.703,5,1.264,"tonal","dev",1,1
8,26,"m","0","0",1,1,38,39,"4b",1,2.346,2,0.983,"tonal","dev",1,1
8,26,"m","0","0",1,1,39,10,"3b",2,1.612,3,1.758,"atonal","std",2,1
8,26,"m","0","0",1,1,40,20,"6a",2,3.352,2,0.978,"atonal","std",2,1
8,26,"m","0","0",1,1,41,47,"6b",2,4.686,2,0.369,"tonal","dev",1,0
8,26,"m","0","0",1,1,42,3,"1b",1,1.028,5,1.412,"atonal","dev",1,1
8,26,"m","0","0",1,1,43,1,"1a",1,1.938,6,1.504,"atonal","dev",1,1
8,26,"m","0","0",1,1,44,44,"6a",2,2.779,2,0.284,"tonal","std",2,1
8,26,"m","0","0",1,1,45,9,"3a",1,0.776,5,2.098,"atonal","dev",1,1
8,26,"m","0","0",1,1,46,38,"4b",2,2.407,6,1.327,"tonal","std",2,1
8,26,"m","0","0",1,1,47,35,"3b",1,1.446,2,0.377,"tonal","dev",1,1
9,22,"m","10","6",1,4,0,20,"6a",1,2.552925,3,4.07281,"atonal","std",2,0
9,22,"m","10","6",1,4,1,12,"4a",2,2.17236,6,4.02937,"atonal","std",2,1
9,22,"m","10","6",1,4,2,41,"5a",2,1.818175,6,1.802575,"tonal","dev",1,0
9,22,"m","10","6",1,4,3,40,"5a",1,2.75614,4,1.035015,"tonal","std",2,0
9,22,"m","10","6",1,4,4,13,"4a",1,2.10511,5,0.81729,"atonal","dev",1,1
9,22,"m","10","6",1,4,5,5,"2a",1,1.785795,5,1.736855,"atonal","dev",1,1
9,22,"m","10","6",1,4,6,31,"2b",1,0.455015,6,1.054825,"tonal","dev",1,1
9,22,"m","10","6",1,4,7,44,"6a",2,2.268015,5,1.463725,"tonal","std",2,1
9,22,"m","10","6",1,4,8,7,"2b",2,2.45887,2,4.31875,"atonal","dev",1,0
9,22,"m","10","6",1,4,9,9,"3a",2,3.22418,2,1.741565,"atonal","dev",1,0
9,22,"m","10","6",1,4,10,11,"3b",1,2.52486,1,1.278565,"atonal","dev",1,1
9,22,"m","10","6",1,4,11,36,"4a",2,1.153315,6,0.787965,"tonal","std",2,1
9,22,"m","10","6",1,4,12,19,"5b",2,1.488255,3,0.821265,"atonal","dev",1,0
9,22,"m","10","6",1,4,13,45,"6a",2,1.439825,4,1.26927,"tonal","dev",1,0
9,22,"m","10","6",1,4,14,18,"5b",2,3.09597,4,3.236495,"atonal","std",2,1
9,22,"m","10","6",1,4,15,14,"4b",1,2.004525,2,4.450925,"atonal","std",2,0
9,22,"m","10","6",1,4,16,29,"2a",1,0.767055,6,1.837335,"tonal","dev",1,1
9,22,"m","10","6",1,4,17,23,"6b",2,2.047675,3,2.75913,"atonal","dev",1,0
9,22,"m","10","6",1,4,18,22,"6b",2,2.151585,3,2.425695,"atonal","std",2,1
9,22,"m","10","6",1,4,19,38,"4b",2,3.154885,5,1.708305,"tonal","std",2,1
9,22,"m","10","6",1,4,20,2,"1b",1,5.343865,1,2.0943,"atonal","std",2,0
9,22,"m","10","6",1,4,21,34,"3b",2,1.9095,5,0.901825,"tonal","std",2,1
9,22,"m","10","6",1,4,22,30,"2b",2,1.761585,5,1.485695,"tonal","std",2,1
9,22,"m","10","6",1,4,23,43,"5b",1,1.495385,3,0.53424,"tonal","dev",1,1
9,22,"m","10","6",1,4,24,21,"6a",2,1.909515,5,0.72191,"atonal","dev",1,0
9,22,"m","10","6",1,4,25,47,"6b",2,2.88877,2,1.15123,"tonal","dev",1,0
9,22,"m","10","6",1,4,26,15,"4b",2,1.815055,2,2.78944,"atonal","dev",1,0
9,22,"m","10","6",1,4,27,25,"1a",2,1.91042,5,1.320525,"tonal","dev",1,0
9,22,"m","10","6",1,4,28,39,"4b",2,1.94775,4,0.432315,"tonal","dev",1,0
9,22,"m","10","6",1,4,29,6,"2b",2,3.13944,5,0.5097,"atonal","std",2,1
9,22,"m","10","6",1,4,30,35,"3b",1,0.607115,5,1.284875,"tonal","dev",1,1
9,22,"m","10","6",1,4,31,33,"3a",1,0.468785,5,0.35186,"tonal","dev",1,1
9,22,"m","10","6",1,4,32,26,"1b",2,1.493945,5,0.425365,"tonal","std",2,1
9,22,"m","10","6",1,4,33,8,"3a",2,1.66975,5,0.19388,"atonal","std",2,1
9,22,"m","10","6",1,4,34,42,"5b",2,1.693765,5,0.24198,"tonal","std",2,1
9,22,"m","10","6",1,4,35,32,"3a",2,1.43459,6,0.211355,"tonal","std",2,1
9,22,"m","10","6",1,4,36,4,"2a",2,1.818165,4,0.320085,"atonal","std",2,1
9,22,"m","10","6",1,4,37,1,"1a",2,2.919225,3,0.32142,"atonal","dev",1,0
9,22,"m","10","6",1,4,38,0,"1a",2,7.29603,1,0.549405,"atonal","std",2,1
9,22,"m","10","6",1,4,39,46,"6b",2,2.08572,6,0.73779,"tonal","std",2,1
9,22,"m","10","6",1,4,40,27,"1b",1,1.26039,5,1.05597,"tonal","dev",1,1
9,22,"m","10","6",1,4,41,28,"2a",2,2.318645,3,0.19561,"tonal","std",2,1
9,22,"m","10","6",1,4,42,3,"1b",2,3.44043,3,1.406915,"atonal","dev",1,0
9,22,"m","10","6",1,4,43,16,"5a",2,1.318795,5,1.00048,"atonal","std",2,1
9,22,"m","10","6",1,4,44,10,"3b",2,1.31075,6,0.90164,"atonal","std",2,1
9,22,"m","10","6",1,4,45,37,"4a",2,1.33473,6,0.56773,"tonal","dev",1,0
9,22,"m","10","6",1,4,46,24,"1a",2,3.23575,6,0.70282,"tonal","std",2,1
9,22,"m","10","6",1,4,47,17,"5a",2,1.96925,5,0.65112,"atonal","dev",1,0
10,26,"m","15","5",1,4,0,40,"5a",1,4.36731,5,5.600605,"tonal","std",2,0
10,26,"m","15","5",1,4,1,23,"6b",2,4.085585,3,2.959375,"atonal","dev",1,0
10,26,"m","15","5",1,4,2,42,"5b",1,3.100935,5,4.775095,"tonal","std",2,0
10,26,"m","15","5",1,4,3,13,"4a",1,1.45457,6,2.419205,"atonal","dev",1,1
10,26,"m","15","5",1,4,4,41,"5a",1,1.699995,6,2.27581,"tonal","dev",1,1
10,26,"m","15","5",1,4,5,35,"3b",1,2.492145,5,2.449765,"tonal","dev",1,1
10,26,"m","15","5",1,4,6,46,"6b",2,1.55627,4,3.416195,"tonal","std",2,1
10,26,"m","15","5",1,4,7,22,"6b",2,2.13306,3,2.599555,"atonal","std",2,1
10,26,"m","15","5",1,4,8,37,"4a",2,1.150065,4,2.509355,"tonal","dev",1,0
10,26,"m","15","5",1,4,9,39,"4b",1,0.90321,4,1.99993,"tonal","dev",1,1
10,26,"m","15","5",1,4,10,25,"1a",2,2.69025,2,1.19454,"tonal","dev",1,0
10,26,"m","15","5",1,4,11,27,"1b",1,1.63908,4,2.658775,"tonal","dev",1,1
10,26,"m","15","5",1,4,12,12,"4a",2,1.78441,5,3.682625,"atonal","std",2,1
10,26,"m","15","5",1,4,13,18,"5b",2,1.93471,5,1.69001,"atonal","std",2,1
10,26,"m","15","5",1,4,14,30,"2b",2,3.268245,6,2.999865,"tonal","std",2,1
10,26,"m","15","5",1,4,15,38,"4b",2,2.25103,7,3.9846,"tonal","std",2,1
10,26,"m","15","5",1,4,16,44,"6a",2,4.06687,5,1.683335,"tonal","std",2,1
10,26,"m","15","5",1,4,17,7,"2b",1,0.662115,5,1.516555,"atonal","dev",1,1
10,26,"m","15","5",1,4,18,47,"6b",1,0.74567,6,0.722675,"tonal","dev",1,1
10,26,"m","15","5",1,4,19,29,"2a",1,1.265555,6,1.8002,"tonal","dev",1,1
10,26,"m","15","5",1,4,20,26,"1b",2,4.79918,3,1.61658,"tonal","std",2,1
10,26,"m","15","5",1,4,21,2,"1b",2,3.73326,2,1.633035,"atonal","std",2,1
10,26,"m","15","5",1,4,22,36,"4a",2,1.250555,7,2.30016,"tonal","std",2,1
10,26,"m","15","5",1,4,23,3,"1b",2,2.86038,2,1.755135,"atonal","dev",1,0
10,26,"m","15","5",1,4,24,4,"2a",2,4.18219,1,1.500185,"atonal","std",2,1
10,26,"m","15","5",1,4,25,8,"3a",2,1.651405,3,2.78539,"atonal","std",2,1
10,26,"m","15","5",1,4,26,14,"4b",2,1.910495,3,1.667535,"atonal","std",2,1
10,26,"m","15","5",1,4,27,21,"6a",1,0.817075,5,1.471745,"atonal","dev",1,1
10,26,"m","15","5",1,4,28,0,"1a",2,2.01662,4,1.511715,"atonal","std",2,1
10,26,"m","15","5",1,4,29,19,"5b",1,0.97226,5,1.616405,"atonal","dev",1,1
10,26,"m","15","5",1,4,30,45,"6a",2,1.299835,5,2.15417,"tonal","dev",1,0
10,26,"m","15","5",1,4,31,1,"1a",1,0.85875,5,1.69014,"atonal","dev",1,1
10,26,"m","15","5",1,4,32,32,"3a",2,1.068445,7,0.811265,"tonal","std",2,1
10,26,"m","15","5",1,4,33,43,"5b",2,1.741895,5,1.235415,"tonal","dev",1,0
10,26,"m","15","5",1,4,34,15,"4b",2,3.70908,2,2.150855,"atonal","dev",1,0
10,26,"m","15","5",1,4,35,34,"3b",2,1.51612,7,1.07822,"tonal","std",2,1
10,26,"m","15","5",1,4,36,11,"3b",2,3.027015,4,2.05443,"atonal","dev",1,0
10,26,"m","15","5",1,4,37,24,"1a",2,1.078625,5,1.234005,"tonal","std",2,1
10,26,"m","15","5",1,4,38,28,"2a",2,0.924075,5,2.0237,"tonal","std",2,1
10,26,"m","15","5",1,4,39,16,"5a",2,4.318385,4,3.22399,"atonal","std",2,1
10,26,"m","15","5",1,4,40,20,"6a",2,3.94946,3,2.816625,"atonal","std",2,1
10,26,"m","15","5",1,4,41,10,"3b",2,1.49939,5,2.283195,"atonal","std",2,1
10,26,"m","15","5",1,4,42,6,"2b",2,1.16154,5,1.106495,"atonal","std",2,1
10,26,"m","15","5",1,4,43,33,"3a",1,0.583055,6,2.82021,"tonal","dev",1,1
10,26,"m","15","5",1,4,44,17,"5a",1,1.683275,3,0.9174,"atonal","dev",1,1
10,26,"m","15","5",1,4,45,5,"2a",1,0.833215,5,1.16741,"atonal","dev",1,1
10,26,"m","15","5",1,4,46,31,"2b",2,9.47071,4,1.899905,"tonal","dev",1,0
10,26,"m","15","5",1,4,47,9,"3a",1,5.89882,3,2.350155,"atonal","dev",1,1
11,34,"f","0","0",1,1,0,3,"1b",1,1.314,5,1.981,"atonal","dev",1,1
11,34,"f","0","0",1,1,1,36,"4a",2,1.766,4,1.46,"tonal","std",2,1
11,34,"f","0","0",1,1,2,27,"1b",1,1.05,6,1.233,"tonal","dev",1,1
11,34,"f","0","0",1,1,3,35,"3b",1,2.416,4,1.268,"tonal","dev",1,1
11,34,"f","0","0",1,1,4,38,"4b",2,1.233,6,1.249,"tonal","std",2,1
11,34,"f","0","0",1,1,5,26,"1b",2,1.816,5,1.651,"tonal","std",2,1
11,34,"f","0","0",1,1,6,13,"4a",1,2.12,5,2.552,"atonal","dev",1,1
11,34,"f","0","0",1,1,7,1,"1a",2,3.316,3,1.903,"atonal","dev",1,0
11,34,"f","0","0",1,1,8,33,"3a",2,1.549,4,1.151,"tonal","dev",1,0
11,34,"f","0","0",1,1,9,47,"6b",2,3.032,3,1.567,"tonal","dev",1,0
11,34,"f","0","0",1,1,10,19,"5b",2,2.633,6,2.053,"atonal","dev",1,0
11,34,"f","0","0",1,1,11,34,"3b",2,1.401,6,1.067,"tonal","std",2,1
11,34,"f","0","0",1,1,12,17,"5a",1,1.149,5,1.082,"atonal","dev",1,1
11,34,"f","0","0",1,1,13,10,"3b",2,1.332,4,1.066,"atonal","std",2,1
11,34,"f","0","0",1,1,14,39,"4b",1,1.617,3,1.385,"tonal","dev",1,1
11,34,"f","0","0",1,1,15,25,"1a",1,4.014,2,1.283,"tonal","dev",1,1
11,34,"f","0","0",1,1,16,21,"6a",1,1.566,2,1.066,"atonal","dev",1,1
11,34,"f","0","0",1,1,17,7,"2b",1,2.547,2,1.249,"atonal","dev",1,1
11,34,"f","0","0",1,1,18,42,"5b",2,2.671,5,1.282,"tonal","std",2,1
11,34,"f","0","0",1,1,19,37,"4a",1,1.233,4,1.132,"tonal","dev",1,1
11,34,"f","0","0",1,1,20,14,"4b",2,2.136,4,1.039,"atonal","std",2,1
11,34,"f","0","0",1,1,21,16,"5a",2,1.767,5,1.282,"atonal","std",2,1
11,34,"f","0","0",1,1,22,2,"1b",2,1.566,5,2.205,"atonal","std",2,1
11,34,"f","0","0",1,1,23,32,"3a",2,1.267,5,1.152,"tonal","std",2,1
11,34,"f","0","0",1,1,24,46,"6b",2,1.331,5,1.017,"tonal","std",2,1
11,34,"f","0","0",1,1,25,24,"1a",2,4.265,2,1.598,"tonal","std",2,1
11,34,"f","0","0",1,1,26,44,"6a",2,3.348,3,1.599,"tonal","std",2,1
11,34,"f","0","0",1,1,27,31,"2b",1,1.116,5,1.167,"tonal","dev",1,1
11,34,"f","0","0",1,1,28,4,"2a",2,2.015,4,1.616,"atonal","std",2,1
11,34,"f","0","0",1,1,29,5,"2a",1,1.265,4,1.019,"atonal","dev",1,1
11,34,"f","0","0",1,1,30,12,"4a",2,3.215,2,0.87,"atonal","std",2,1
11,34,"f","0","0",1,1,31,29,"2a",1,1.25,5,1.118,"tonal","dev",1,1
11,34,"f","0","0",1,1,32,0,"1a",1,2.733,2,1.049,"atonal","std",2,0
11,34,"f","0","0",1,1,33,45,"6a",1,1.769,3,2.249,"tonal","dev",1,1
11,34,"f","0","0",1,1,34,18,"5b",2,1.798,4,1.134,"atonal","std",2,1
11,34,"f","0","0",1,1,35,40,"5a",2,7.961,2,1.699,"tonal","std",2,1
11,34,"f","0","0",1,1,36,22,"6b",1,1.007,1,3.385,"atonal","std",2,0
11,34,"f","0","0",1,1,37,43,"5b",1,1.917,2,2.215,"tonal","dev",1,1
11,34,"f","0","0",1,1,38,20,"6a",2,2.199,3,1.118,"atonal","std",2,1
11,34,"f","0","0",1,1,39,6,"2b",2,3.032,4,0.968,"atonal","std",2,1
11,34,"f","0","0",1,1,40,41,"5a",1,1.149,4,2.571,"tonal","dev",1,1
11,34,"f","0","0",1,1,41,23,"6b",2,5.014,4,1.464,"atonal","dev",1,0
11,34,"f","0","0",1,1,42,30,"2b",2,1.733,5,1.715,"tonal","std",2,1
11,34,"f","0","0",1,1,43,15,"4b",2,4.064,3,3.152,"atonal","dev",1,0
11,34,"f","0","0",1,1,44,9,"3a",1,1.268,3,0.915,"atonal","dev",1,1
11,34,"f","0","0",1,1,45,11,"3b",1,1.367,4,1.166,"atonal","dev",1,1
11,34,"f","0","0",1,1,46,28,"2a",2,2.265,5,1.701,"tonal","std",2,1
11,34,"f","0","0",1,1,47,8,"3a",2,2.633,5,3.132,"atonal","std",2,1
12,43,"m","0","0",1,1,0,24,"1a",2,13.198175,4,2.939345,"tonal","std",2,1
12,43,"m","0","0",1,1,1,10,"3b",2,12.13642,1,5.560135,"atonal","std",2,1
12,43,"m","0","0",1,1,2,15,"4b",2,3.84201,1,2.72868,"atonal","dev",1,0
12,43,"m","0","0",1,1,3,29,"2a",1,2.875295,5,9.03402,"tonal","dev",1,1
12,43,"m","0","0",1,1,4,5,"2a",2,1.96939,2,1.55892,"atonal","dev",1,0
12,43,"m","0","0",1,1,5,43,"5b",2,4.057,1,1.246005,"tonal","dev",1,0
12,43,"m","0","0",1,1,6,13,"4a",1,3.01007,3,0.770625,"atonal","dev",1,1
12,43,"m","0","0",1,1,7,35,"3b",2,5.58655,2,0.92837,"tonal","dev",1,0
12,43,"m","0","0",1,1,8,14,"4b",2,3.572765,2,1.97799,"atonal","std",2,1
12,43,"m","0","0",1,1,9,25,"1a",2,3.076525,1,2.47678,"tonal","dev",1,0
12,43,"m","0","0",1,1,10,0,"1a",2,1.59959,1,1.761135,"atonal","std",2,1
12,43,"m","0","0",1,1,11,38,"4b",1,2.762075,1,1.273975,"tonal","std",2,0
12,43,"m","0","0",1,1,12,11,"3b",2,2.888765,2,0.6569,"atonal","dev",1,0
12,43,"m","0","0",1,1,13,18,"5b",2,1.33749,2,3.65438,"atonal","std",2,1
12,43,"m","0","0",1,1,14,26,"1b",2,2.972565,2,7.16513,"tonal","std",2,1
12,43,"m","0","0",1,1,15,16,"5a",2,5.281735,2,0.64008,"atonal","std",2,1
12,43,"m","0","0",1,1,16,17,"5a",2,0.95433,2,0.524985,"atonal","dev",1,0
12,43,"m","0","0",1,1,17,40,"5a",2,1.35776,2,0.957985,"tonal","std",2,1
12,43,"m","0","0",1,1,18,19,"5b",2,4.21018,2,0.54703,"atonal","dev",1,0
12,43,"m","0","0",1,1,19,39,"4b",2,1.562455,1,0.46809,"tonal","dev",1,0
12,43,"m","0","0",1,1,20,37,"4a",2,5.07726,2,0.367825,"tonal","dev",1,0
12,43,"m","0","0",1,1,21,46,"6b",1,1.48924,3,2.620735,"tonal","std",2,0
12,43,"m","0","0",1,1,22,7,"2b",2,1.5905,2,0.853955,"atonal","dev",1,0
12,43,"m","0","0",1,1,23,21,"6a",2,8.85947,1,1.770565,"atonal","dev",1,0
12,43,"m","0","0",1,1,24,36,"4a",1,2.74755,2,1.298795,"tonal","std",2,0
12,43,"m","0","0",1,1,25,23,"6b",2,1.95301,2,0.57326,"atonal","dev",1,0
12,43,"m","0","0",1,1,26,32,"3a",2,5.43944,1,1.46858,"tonal","std",2,1
12,43,"m","0","0",1,1,27,33,"3a",2,1.621345,1,1.331635,"tonal","dev",1,0
12,43,"m","0","0",1,1,28,41,"5a",2,1.825635,3,1.478225,"tonal","dev",1,0
12,43,"m","0","0",1,1,29,28,"2a",2,2.14121,1,4.66622,"tonal","std",2,1
12,43,"m","0","0",1,1,30,3,"1b",2,6.703265,2,0.670595,"atonal","dev",1,0
12,43,"m","0","0",1,1,31,34,"3b",2,1.05612,3,1.590585,"tonal","std",2,1
12,43,"m","0","0",1,1,32,45,"6a",1,1.20163,2,1.31096,"tonal","dev",1,1
12,43,"m","0","0",1,1,33,47,"6b",2,6.743555,1,0.614965,"tonal","dev",1,0
12,43,"m","0","0",1,1,34,12,"4a",1,2.45788,2,0.40103,"atonal","std",2,0
12,43,"m","0","0",1,1,35,44,"6a",2,1.978495,2,1.04795,"tonal","std",2,1
12,43,"m","0","0",1,1,36,30,"2b",1,0.89265,3,0.560215,"tonal","std",2,0
12,43,"m","0","0",1,1,37,9,"3a",2,1.624265,2,1.27622,"atonal","dev",1,0
12,43,"m","0","0",1,1,38,8,"3a",2,0.45365,1,0.31204,"atonal","std",2,1
12,43,"m","0","0",1,1,39,1,"1a",2,1.20958,1,0.403225,"atonal","dev",1,0
12,43,"m","0","0",1,1,40,20,"6a",1,1.202,1,0.31791,"atonal","std",2,0
12,43,"m","0","0",1,1,41,4,"2a",2,3.047175,2,0.968205,"atonal","std",2,1
12,43,"m","0","0",1,1,42,2,"1b",2,2.88347,2,0.345615,"atonal","std",2,1
12,43,"m","0","0",1,1,43,6,"2b",2,1.990895,1,0.40642,"atonal","std",2,1
12,43,"m","0","0",1,1,44,31,"2b",1,0.60363,3,1.252425,"tonal","dev",1,1
12,43,"m","0","0",1,1,45,27,"1b",2,0.661615,2,5.308405,"tonal","dev",1,0
12,43,"m","0","0",1,1,46,42,"5b",2,0.946885,1,0.959315,"tonal","std",2,1
12,43,"m","0","0",1,1,47,22,"6b",2,1.444125,1,0.31772,"atonal","std",2,1
13,69,"f","0","0",1,1,0,5,"2a",2,4.317,6,6.267,"atonal","dev",1,0
13,69,"f","0","0",1,1,1,28,"2a",2,2.734,6,2.259,"tonal","std",2,1
13,69,"f","0","0",1,1,2,16,"5a",2,3.899,6,2.061,"atonal","std",2,1
13,69,"f","0","0",1,1,3,15,"4b",2,7.668,5,4.216,"atonal","dev",1,0
13,69,"f","0","0",1,1,4,3,"1b",1,1.596,5,5.15,"atonal","dev",1,1
13,69,"f","0","0",1,1,5,21,"6a",1,2.02,5,2.439,"atonal","dev",1,1
13,69,"f","0","0",1,1,6,12,"4a",2,7.324,5,2.481,"atonal","std",2,1
13,69,"f","0","0",1,1,7,46,"6b",2,3.218,5,2.384,"tonal","std",2,1
13,69,"f","0","0",1,1,8,22,"6b",1,2.066,5,3.219,"atonal","std",2,0
13,69,"f","0","0",1,1,9,38,"4b",1,0.484,6,2.377,"tonal","std",2,0
13,69,"f","0","0",1,1,10,26,"1b",1,0.525,6,1.925,"tonal","std",2,0
13,69,"f","0","0",1,1,11,25,"1a",1,2.176,5,1.175,"tonal","dev",1,1
13,69,"f","0","0",1,1,12,47,"6b",1,1.702,3,4.077,"tonal","dev",1,1
13,69,"f","0","0",1,1,13,1,"1a",2,3.501,5,1.28,"atonal","dev",1,0
13,69,"f","0","0",1,1,14,27,"1b",1,0.575,5,2.623,"tonal","dev",1,1
13,69,"f","0","0",1,1,15,23,"6b",1,0.676,5,2.359,"atonal","dev",1,1
13,69,"f","0","0",1,1,16,41,"5a",1,1.459,5,2.435,"tonal","dev",1,1
13,69,"f","0","0",1,1,17,44,"6a",1,1.459,6,1.158,"tonal","std",2,0
13,69,"f","0","0",1,1,18,24,"1a",1,2.9,5,1.059,"tonal","std",2,0
13,69,"f","0","0",1,1,19,34,"3b",2,0.55,6,1.258,"tonal","std",2,1
13,69,"f","0","0",1,1,20,20,"6a",2,4.282,3,1.625,"atonal","std",2,1
13,69,"f","0","0",1,1,21,4,"2a",2,1.367,3,4.859,"atonal","std",2,1
13,69,"f","0","0",1,1,22,29,"2a",1,0.512,6,1.676,"tonal","dev",1,1
13,69,"f","0","0",1,1,23,17,"5a",2,3.108,3,1.811,"atonal","dev",1,0
13,69,"f","0","0",1,1,24,2,"1b",2,2.707,3,0.974,"atonal","std",2,1
13,69,"f","0","0",1,1,25,11,"3b",2,1.083,3,0.859,"atonal","dev",1,0
13,69,"f","0","0",1,1,26,35,"3b",1,0.444,5,1.177,"tonal","dev",1,1
13,69,"f","0","0",1,1,27,33,"3a",1,0.375,6,0.858,"tonal","dev",1,1
13,69,"f","0","0",1,1,28,10,"3b",2,0.481,5,1.369,"atonal","std",2,1
13,69,"f","0","0",1,1,29,14,"4b",2,0.508,5,0.769,"atonal","std",2,1
13,69,"f","0","0",1,1,30,45,"6a",1,0.441,5,0.71,"tonal","dev",1,1
13,69,"f","0","0",1,1,31,36,"4a",1,0.476,5,0.668,"tonal","std",2,0
13,69,"f","0","0",1,1,32,8,"3a",2,0.609,5,2.77,"atonal","std",2,1
13,69,"f","0","0",1,1,33,30,"2b",2,3.294,6,0.925,"tonal","std",2,1
13,69,"f","0","0",1,1,34,37,"4a",1,0.473,5,0.976,"tonal","dev",1,1
13,69,"f","0","0",1,1,35,42,"5b",1,1.609,3,1.088,"tonal","std",2,0
13,69,"f","0","0",1,1,36,39,"4b",2,2.12,3,3.342,"tonal","dev",1,0
13,69,"f","0","0",1,1,37,19,"5b",1,4.014,4,1.946,"atonal","dev",1,1
13,69,"f","0","0",1,1,38,18,"5b",2,0.5,4,2.612,"atonal","std",2,1
13,69,"f","0","0",1,1,39,32,"3a",2,1.743,6,0.76,"tonal","std",2,1
13,69,"f","0","0",1,1,40,43,"5b",2,0.633,6,0.625,"tonal","dev",1,0
13,69,"f","0","0",1,1,41,9,"3a",2,1.702,5,1.109,"atonal","dev",1,0
13,69,"f","0","0",1,1,42,31,"2b",1,2.853,5,0.834,"tonal","dev",1,1
13,69,"f","0","0",1,1,43,6,"2b",2,2.022,5,1.075,"atonal","std",2,1
13,69,"f","0","0",1,1,44,7,"2b",2,4.249,5,0.549,"atonal","dev",1,0
13,69,"f","0","0",1,1,45,0,"1a",2,1.692,6,0.846,"atonal","std",2,1
13,69,"f","0","0",1,1,46,13,"4a",2,1.2,5,0.691,"atonal","dev",1,0
13,69,"f","0","0",1,1,47,40,"5a",2,1.208,5,0.583,"tonal","std",2,1
14,61,"f","0","0",1,1,0,23,"6b",1,0.721,6,2.281,"atonal","dev",1,1
14,61,"f","0","0",1,1,1,16,"5a",2,4.833,2,2.145,"atonal","std",2,1
14,61,"f","0","0",1,1,2,9,"3a",1,1.349,4,1.375,"atonal","dev",1,1
14,61,"f","0","0",1,1,3,6,"2b",1,0.618,6,1.25,"atonal","std",2,0
14,61,"f","0","0",1,1,4,35,"3b",2,1.961,5,2.09,"tonal","dev",1,0
14,61,"f","0","0",1,1,5,0,"1a",2,1.764,4,3.11,"atonal","std",2,1
14,61,"f","0","0",1,1,6,13,"4a",1,2.174,5,2.037,"atonal","dev",1,1
14,61,"f","0","0",1,1,7,20,"6a",1,2.182,3,1.891,"atonal","std",2,0
14,61,"f","0","0",1,1,8,31,"2b",2,2.195,6,1.984,"tonal","dev",1,0
14,61,"f","0","0",1,1,9,21,"6a",1,1.828,7,2.871,"atonal","dev",1,1
14,61,"f","0","0",1,1,10,36,"4a",2,1.925,5,1.952,"tonal","std",2,1
14,61,"f","0","0",1,1,11,44,"6a",2,2.359,5,2.619,"tonal","std",2,1
14,61,"f","0","0",1,1,12,43,"5b",1,3.144,3,1.868,"tonal","dev",1,1
14,61,"f","0","0",1,1,13,42,"5b",2,2.664,5,2.402,"tonal","std",2,1
14,61,"f","0","0",1,1,14,24,"1a",1,1.576,7,1.246,"tonal","std",2,0
14,61,"f","0","0",1,1,15,19,"5b",2,2.351,4,2.474,"atonal","dev",1,0
14,61,"f","0","0",1,1,16,10,"3b",1,3.282,2,2.066,"atonal","std",2,0
14,61,"f","0","0",1,1,17,14,"4b",2,2.184,5,2.113,"atonal","std",2,1
14,61,"f","0","0",1,1,18,29,"2a",1,1.55,7,1.554,"tonal","dev",1,1
14,61,"f","0","0",1,1,19,40,"5a",2,2.539,5,3.768,"tonal","std",2,1
14,61,"f","0","0",1,1,20,39,"4b",2,1.864,3,1.876,"tonal","dev",1,0
14,61,"f","0","0",1,1,21,18,"5b",1,2.178,6,2.526,"atonal","std",2,0
14,61,"f","0","0",1,1,22,11,"3b",2,5.751,1,2.479,"atonal","dev",1,0
14,61,"f","0","0",1,1,23,15,"4b",2,1.949,5,1.346,"atonal","dev",1,0
14,61,"f","0","0",1,1,24,34,"3b",2,2.06,7,1.489,"tonal","std",2,1
14,61,"f","0","0",1,1,25,47,"6b",1,1.835,6,1.245,"tonal","dev",1,1
14,61,"f","0","0",1,1,26,38,"4b",2,2.339,2,1.349,"tonal","std",2,1
14,61,"f","0","0",1,1,27,45,"6a",1,1.66,5,1.783,"tonal","dev",1,1
14,61,"f","0","0",1,1,28,46,"6b",2,2.701,3,1.503,"tonal","std",2,1
14,61,"f","0","0",1,1,29,27,"1b",1,1.957,6,1.767,"tonal","dev",1,1
14,61,"f","0","0",1,1,30,4,"2a",1,3.644,7,1.267,"atonal","std",2,0
14,61,"f","0","0",1,1,31,32,"3a",2,1.509,5,2.343,"tonal","std",2,1
14,61,"f","0","0",1,1,32,28,"2a",2,2.402,5,1.308,"tonal","std",2,1
14,61,"f","0","0",1,1,33,2,"1b",1,2.112,6,1.462,"atonal","std",2,0
14,61,"f","0","0",1,1,34,17,"5a",1,1.999,7,1.528,"atonal","dev",1,1
14,61,"f","0","0",1,1,35,22,"6b",1,1.443,6,0.84,"atonal","std",2,0
14,61,"f","0","0",1,1,36,1,"1a",1,1.371,7,0.659,"atonal","dev",1,1
14,61,"f","0","0",1,1,37,37,"4a",1,1.352,5,1.586,"tonal","dev",1,1
14,61,"f","0","0",1,1,38,33,"3a",2,1.661,6,0.939,"tonal","dev",1,0
14,61,"f","0","0",1,1,39,5,"2a",1,1.373,5,2.44,"atonal","dev",1,1
14,61,"f","0","0",1,1,40,7,"2b",1,1.979,4,3.216,"atonal","dev",1,1
14,61,"f","0","0",1,1,41,8,"3a",2,1.494,4,1.501,"atonal","std",2,1
14,61,"f","0","0",1,1,42,12,"4a",2,2.83,3,2.31,"atonal","std",2,1
14,61,"f","0","0",1,1,43,30,"2b",2,1.632,6,1.417,"tonal","std",2,1
14,61,"f","0","0",1,1,44,41,"5a",1,1.955,5,4.555,"tonal","dev",1,1
14,61,"f","0","0",1,1,45,25,"1a",2,1.577,5,2.602,"tonal","dev",1,0
14,61,"f","0","0",1,1,46,26,"1b",2,3.417,4,1.165,"tonal","std",2,1
14,61,"f","0","0",1,1,47,3,"1b",1,1.442,7,0.808,"atonal","dev",1,1
15,28,"f","0","0",1,1,0,12,"4a",2,2.32733,2,2.38369,"atonal","std",2,1
15,28,"f","0","0",1,1,1,29,"2a",1,1.16844,1,0.492395,"tonal","dev",1,1
15,28,"f","0","0",1,1,2,37,"4a",2,1.20598,1,0.49188,"tonal","dev",1,0
15,28,"f","0","0",1,1,3,32,"3a",2,1.57215,1,0.82243,"tonal","std",2,1
15,28,"f","0","0",1,1,4,41,"5a",2,2.862505,2,1.14662,"tonal","dev",1,0
15,28,"f","0","0",1,1,5,22,"6b",1,4.165275,4,2.272175,"atonal","std",2,0
15,28,"f","0","0",1,1,6,42,"5b",2,1.41144,2,0.993235,"tonal","std",2,1
15,28,"f","0","0",1,1,7,18,"5b",2,1.3446,2,0.57136,"atonal","std",2,1
15,28,"f","0","0",1,1,8,39,"4b",2,1.689565,2,1.276365,"tonal","dev",1,0
15,28,"f","0","0",1,1,9,45,"6a",1,2.363025,4,2.29499,"tonal","dev",1,1
15,28,"f","0","0",1,1,10,1,"1a",2,1.633075,3,2.422315,"atonal","dev",1,0
15,28,"f","0","0",1,1,11,8,"3a",2,3.990345,2,12.54774,"atonal","std",2,1
15,28,"f","0","0",1,1,12,26,"1b",2,1.743395,2,0.4111,"tonal","std",2,1
15,28,"f","0","0",1,1,13,3,"1b",2,1.525475,2,0.959485,"atonal","dev",1,0
15,28,"f","0","0",1,1,14,19,"5b",1,0.509415,3,1.66019,"atonal","dev",1,1
15,28,"f","0","0",1,1,15,23,"6b",1,1.761025,2,1.309485,"atonal","dev",1,1
15,28,"f","0","0",1,1,16,27,"1b",1,0.423415,1,0.57394,"tonal","dev",1,1
15,28,"f","0","0",1,1,17,43,"5b",2,1.034895,2,1.255565,"tonal","dev",1,0
15,28,"f","0","0",1,1,18,38,"4b",2,1.12335,1,1.38532,"tonal","std",2,1
15,28,"f","0","0",1,1,19,44,"6a",2,0.707995,1,0.78304,"tonal","std",2,1
15,28,"f","0","0",1,1,20,4,"2a",2,1.32285,4,1.395585,"atonal","std",2,1
15,28,"f","0","0",1,1,21,17,"5a",2,3.26738,3,0.721135,"atonal","dev",1,0
15,28,"f","0","0",1,1,22,46,"6b",2,1.50899,2,0.610885,"tonal","std",2,1
15,28,"f","0","0",1,1,23,47,"6b",1,0.391005,1,1.095155,"tonal","dev",1,1
15,28,"f","0","0",1,1,24,14,"4b",2,1.372215,2,0.626525,"atonal","std",2,1
15,28,"f","0","0",1,1,25,15,"4b",2,3.21322,3,0.889495,"atonal","dev",1,0
15,28,"f","0","0",1,1,26,30,"2b",2,1.38192,1,0.258585,"tonal","std",2,1
15,28,"f","0","0",1,1,27,0,"1a",2,1.39494,2,0.411585,"atonal","std",2,1
15,28,"f","0","0",1,1,28,20,"6a",2,1.689685,2,0.35999,"atonal","std",2,1
15,28,"f","0","0",1,1,29,31,"2b",1,0.406925,1,0.64887,"tonal","dev",1,1
15,28,"f","0","0",1,1,30,10,"3b",2,1.52777,3,1.223935,"atonal","std",2,1
15,28,"f","0","0",1,1,31,24,"1a",2,1.451515,2,0.37233,"tonal","std",2,1
15,28,"f","0","0",1,1,32,11,"3b",2,1.78487,2,0.374735,"atonal","dev",1,0
15,28,"f","0","0",1,1,33,2,"1b",2,1.55869,3,0.22786,"atonal","std",2,1
15,28,"f","0","0",1,1,34,40,"5a",2,1.807095,3,0.29338,"tonal","std",2,1
15,28,"f","0","0",1,1,35,21,"6a",1,1.05995,1,0.42962,"atonal","dev",1,1
15,28,"f","0","0",1,1,36,34,"3b",1,1.74089,4,0.945775,"tonal","std",2,0
15,28,"f","0","0",1,1,37,9,"3a",1,1.16002,2,0.52926,"atonal","dev",1,1
15,28,"f","0","0",1,1,38,35,"3b",1,1.500495,4,0.721045,"tonal","dev",1,1
15,28,"f","0","0",1,1,39,33,"3a",1,0.414145,1,0.225905,"tonal","dev",1,1
15,28,"f","0","0",1,1,40,36,"4a",2,1.495245,3,0.24937,"tonal","std",2,1
15,28,"f","0","0",1,1,41,13,"4a",2,2.290845,3,0.195405,"atonal","dev",1,0
15,28,"f","0","0",1,1,42,16,"5a",2,1.40814,1,0.349665,"atonal","std",2,1
15,28,"f","0","0",1,1,43,5,"2a",1,0.346485,4,0.70534,"atonal","dev",1,1
15,28,"f","0","0",1,1,44,28,"2a",2,1.5518,2,0.187735,"tonal","std",2,1
15,28,"f","0","0",1,1,45,6,"2b",1,0.343495,1,0.225635,"atonal","std",2,0
15,28,"f","0","0",1,1,46,7,"2b",2,1.20825,2,0.44346,"atonal","dev",1,0
15,28,"f","0","0",1,1,47,25,"1a",2,1.42742,3,0.656855,"tonal","dev",1,0
16,37,"f","2","8",1,1,0,4,"2a",1,2.24186,4,2.59574,"atonal","std",2,0
16,37,"f","2","8",1,1,1,20,"6a",2,2.17204,3,3.994775,"atonal","std",2,1
16,37,"f","2","8",1,1,2,40,"5a",1,1.42015,5,2.137,"tonal","std",2,0
16,37,"f","2","8",1,1,3,5,"2a",2,1.286225,6,2.33791,"atonal","dev",1,0
16,37,"f","2","8",1,1,4,26,"1b",2,3.673955,4,4.31355,"tonal","std",2,1
16,37,"f","2","8",1,1,5,25,"1a",2,2.27335,4,1.55357,"tonal","dev",1,0
16,37,"f","2","8",1,1,6,0,"1a",2,1.80311,5,2.541625,"atonal","std",2,1
16,37,"f","2","8",1,1,7,44,"6a",2,2.18718,5,2.77121,"tonal","std",2,1
16,37,"f","2","8",1,1,8,19,"5b",1,1.30343,3,3.00415,"atonal","dev",1,1
16,37,"f","2","8",1,1,9,36,"4a",2,3.30479,5,2.904315,"tonal","std",2,1
16,37,"f","2","8",1,1,10,33,"3a",2,2.02054,6,1.40376,"tonal","dev",1,0
16,37,"f","2","8",1,1,11,8,"3a",2,1.60386,6,1.021385,"atonal","std",2,1
16,37,"f","2","8",1,1,12,10,"3b",1,0.924275,4,3.13797,"atonal","std",2,0
16,37,"f","2","8",1,1,13,9,"3a",1,0.68491,5,1.69488,"atonal","dev",1,1
16,37,"f","2","8",1,1,14,14,"4b",2,1.420135,3,4.156355,"atonal","std",2,1
16,37,"f","2","8",1,1,15,34,"3b",1,2.33691,4,1.30439,"tonal","std",2,0
16,37,"f","2","8",1,1,16,43,"5b",1,1.691855,5,2.229,"tonal","dev",1,1
16,37,"f","2","8",1,1,17,21,"6a",2,1.521575,4,1.91749,"atonal","dev",1,0
16,37,"f","2","8",1,1,18,7,"2b",2,1.6127,5,1.255925,"atonal","dev",1,0
16,37,"f","2","8",1,1,19,1,"1a",1,1.65354,5,1.58593,"atonal","dev",1,1
16,37,"f","2","8",1,1,20,37,"4a",1,1.570415,6,1.814725,"tonal","dev",1,1
16,37,"f","2","8",1,1,21,31,"2b",1,1.486345,5,1.22665,"tonal","dev",1,1
16,37,"f","2","8",1,1,22,32,"3a",2,1.56992,4,1.45314,"tonal","std",2,1
16,37,"f","2","8",1,1,23,46,"6b",1,0.803365,5,1.069295,"tonal","std",2,0
16,37,"f","2","8",1,1,24,3,"1b",2,1.31998,5,2.356015,"atonal","dev",1,0
16,37,"f","2","8",1,1,25,47,"6b",2,2.30779,4,1.48664,"tonal","dev",1,0
16,37,"f","2","8",1,1,26,38,"4b",2,1.63917,5,0.97065,"tonal","std",2,1
16,37,"f","2","8",1,1,27,15,"4b",1,3.33539,3,1.95958,"atonal","dev",1,1
16,37,"f","2","8",1,1,28,42,"5b",1,1.887795,4,1.283095,"tonal","std",2,0
16,37,"f","2","8",1,1,29,30,"2b",1,1.686345,5,1.644155,"tonal","std",2,0
16,37,"f","2","8",1,1,30,11,"3b",2,1.70281,4,1.411185,"atonal","dev",1,0
16,37,"f","2","8",1,1,31,18,"5b",2,1.522175,5,1.167115,"atonal","std",2,1
16,37,"f","2","8",1,1,32,27,"1b",1,1.55465,2,1.89067,"tonal","dev",1,1
16,37,"f","2","8",1,1,33,24,"1a",2,1.319275,3,2.82717,"tonal","std",2,1
16,37,"f","2","8",1,1,34,22,"6b",2,2.18709,1,1.836805,"atonal","std",2,1
16,37,"f","2","8",1,1,35,23,"6b",2,1.55308,1,0.482475,"atonal","dev",1,0
16,37,"f","2","8",1,1,36,13,"4a",2,2.18759,1,0.63619,"atonal","dev",1,0
16,37,"f","2","8",1,1,37,41,"5a",1,1.52581,2,1.92082,"tonal","dev",1,1
16,37,"f","2","8",1,1,38,35,"3b",2,1.336805,3,1.269485,"tonal","dev",1,0
16,37,"f","2","8",1,1,39,16,"5a",1,1.403,3,1.28664,"atonal","std",2,0
16,37,"f","2","8",1,1,40,2,"1b",2,1.67548,4,3.024535,"atonal","std",2,1
16,37,"f","2","8",1,1,41,6,"2b",2,1.186275,5,1.370535,"atonal","std",2,1
16,37,"f","2","8",1,1,42,12,"4a",2,1.870495,4,3.652905,"atonal","std",2,1
16,37,"f","2","8",1,1,43,45,"6a",2,1.506245,4,2.62547,"tonal","dev",1,0
16,37,"f","2","8",1,1,44,28,"2a",1,1.502775,2,1.823415,"tonal","std",2,0
16,37,"f","2","8",1,1,45,39,"4b",1,1.35799,5,1.340825,"tonal","dev",1,1
16,37,"f","2","8",1,1,46,29,"2a",1,1.05322,5,1.47003,"tonal","dev",1,1
16,37,"f","2","8",1,1,47,17,"5a",1,0.918735,4,1.127305,"atonal","dev",1,1
17,63,"f","1","7",1,1,0,28,"2a",1,5.4789,7,5.92276,"tonal","std",2,0
17,63,"f","1","7",1,1,1,42,"5b",1,3.18241,7,3.090895,"tonal","std",2,0
17,63,"f","1","7",1,1,2,18,"5b",1,1.794245,7,2.419635,"atonal","std",2,0
17,63,"f","1","7",1,1,3,10,"3b",2,4.929985,3,4.81529,"atonal","std",2,1
17,63,"f","1","7",1,1,4,29,"2a",1,1.714185,7,2.457885,"tonal","dev",1,1
17,63,"f","1","7",1,1,5,0,"1a",2,7.040245,4,11.78004,"atonal","std",2,1
17,63,"f","1","7",1,1,6,45,"6a",2,1.82122,7,2.55269,"tonal","dev",1,0
17,63,"f","1","7",1,1,7,39,"4b",2,3.33378,3,4.506815,"tonal","dev",1,0
17,63,"f","1","7",1,1,8,17,"5a",2,4.321415,6,6.099105,"atonal","dev",1,0
17,63,"f","1","7",1,1,9,23,"6b",2,3.10338,6,3.11581,"atonal","dev",1,0
17,63,"f","1","7",1,1,10,5,"2a",2,2.93036,6,2.453135,"atonal","dev",1,0
17,63,"f","1","7",1,1,11,33,"3a",2,2.730605,6,2.052855,"tonal","dev",1,0
17,63,"f","1","7",1,1,12,15,"4b",2,2.6854,6,1.78771,"atonal","dev",1,0
17,63,"f","1","7",1,1,13,47,"6b",2,2.60038,6,1.73397,"tonal","dev",1,0
17,63,"f","1","7",1,1,14,7,"2b",2,1.67515,6,1.403035,"atonal","dev",1,0
17,63,"f","1","7",1,1,15,34,"3b",2,1.580895,6,1.52202,"tonal","std",2,1
17,63,"f","1","7",1,1,16,19,"5b",2,1.50698,6,1.510225,"atonal","dev",1,0
17,63,"f","1","7",1,1,17,27,"1b",2,1.6873,6,1.438065,"tonal","dev",1,0
17,63,"f","1","7",1,1,18,40,"5a",2,3.19094,6,1.965675,"tonal","std",2,1
17,63,"f","1","7",1,1,19,44,"6a",2,1.723055,6,1.857,"tonal","std",2,1
17,63,"f","1","7",1,1,20,37,"4a",2,2.779055,6,6.77799,"tonal","dev",1,0
17,63,"f","1","7",1,1,21,32,"3a",2,1.519495,6,2.221835,"tonal","std",2,1
17,63,"f","1","7",1,1,22,3,"1b",2,2.24931,6,1.367925,"atonal","dev",1,0
17,63,"f","1","7",1,1,23,22,"6b",2,1.817465,6,2.953165,"atonal","std",2,1
17,63,"f","1","7",1,1,24,13,"4a",2,1.79046,6,2.138525,"atonal","dev",1,0
17,63,"f","1","7",1,1,25,8,"3a",2,2.422545,6,1.632655,"atonal","std",2,1
17,63,"f","1","7",1,1,26,14,"4b",2,1.839525,6,2.017515,"atonal","std",2,1
17,63,"f","1","7",1,1,27,26,"1b",2,1.670615,6,1.8369,"tonal","std",2,1
17,63,"f","1","7",1,1,28,6,"2b",2,1.351965,6,1.941395,"atonal","std",2,1
17,63,"f","1","7",1,1,29,36,"4a",2,1.50689,6,1.46765,"tonal","std",2,1
17,63,"f","1","7",1,1,30,46,"6b",2,1.442775,6,1.55347,"tonal","std",2,1
17,63,"f","1","7",1,1,31,38,"4b",2,1.43891,4,3.12007,"tonal","std",2,1
17,63,"f","1","7",1,1,32,4,"2a",2,1.591325,6,1.590485,"atonal","std",2,1
17,63,"f","1","7",1,1,33,31,"2b",2,2.969785,4,2.36891,"tonal","dev",1,0
17,63,"f","1","7",1,1,34,35,"3b",2,1.8193,4,1.62123,"tonal","dev",1,0
17,63,"f","1","7",1,1,35,20,"6a",2,1.63749,5,4.83537,"atonal","std",2,1
17,63,"f","1","7",1,1,36,21,"6a",2,2.50253,5,2.406595,"atonal","dev",1,0
17,63,"f","1","7",1,1,37,9,"3a",2,2.173215,4,1.670645,"atonal","dev",1,0
17,63,"f","1","7",1,1,38,41,"5a",2,1.42067,5,3.669375,"tonal","dev",1,0
17,63,"f","1","7",1,1,39,16,"5a",2,1.622035,5,1.67956,"atonal","std",2,1
17,63,"f","1","7",1,1,40,1,"1a",2,2.239625,5,2.43916,"atonal","dev",1,0
17,63,"f","1","7",1,1,41,30,"2b",2,1.967815,5,1.9119,"tonal","std",2,1
17,63,"f","1","7",1,1,42,43,"5b",2,1.790785,5,1.74696,"tonal","dev",1,0
17,63,"f","1","7",1,1,43,12,"4a",2,1.9477,5,1.501895,"atonal","std",2,1
17,63,"f","1","7",1,1,44,2,"1b",2,2.15719,5,1.79706,"atonal","std",2,1
17,63,"f","1","7",1,1,45,25,"1a",2,1.830235,5,1.749685,"tonal","dev",1,0
17,63,"f","1","7",1,1,46,24,"1a",2,1.78607,5,1.63355,"tonal","std",2,1
17,63,"f","1","7",1,1,47,11,"3b",2,1.9867,5,1.90291,"atonal","dev",1,0
18,25,"m","0","0",1,1,0,21,"6a",2,2.500575,6,4.70188,"atonal","dev",1,0
18,25,"m","0","0",1,1,1,41,"5a",2,2.33183,7,1.889255,"tonal","dev",1,0
18,25,"m","0","0",1,1,2,40,"5a",2,3.833665,5,2.601225,"tonal","std",2,1
18,25,"m","0","0",1,1,3,12,"4a",1,2.883345,3,3.101455,"atonal","std",2,0
18,25,"m","0","0",1,1,4,37,"4a",2,2.83354,7,1.3667,"tonal","dev",1,0
18,25,"m","0","0",1,1,5,7,"2b",1,5.16975,5,2.666335,"atonal","dev",1,1
18,25,"m","0","0",1,1,6,43,"5b",2,1.64972,7,1.434505,"tonal","dev",1,0
18,25,"m","0","0",1,1,7,22,"6b",2,2.1836,6,1.86735,"atonal","std",2,1
18,25,"m","0","0",1,1,8,11,"3b",1,3.83258,5,1.56797,"atonal","dev",1,1
18,25,"m","0","0",1,1,9,42,"5b",2,1.816675,6,2.11699,"tonal","std",2,1
18,25,"m","0","0",1,1,10,25,"1a",1,1.420385,7,0.9559,"tonal","dev",1,1
18,25,"m","0","0",1,1,11,39,"4b",2,2.569785,5,3.122435,"tonal","dev",1,0
18,25,"m","0","0",1,1,12,46,"6b",2,2.583435,4,1.000905,"tonal","std",2,1
18,25,"m","0","0",1,1,13,45,"6a",1,2.33812,7,0.583815,"tonal","dev",1,1
18,25,"m","0","0",1,1,14,4,"2a",2,5.15062,4,0.78473,"atonal","std",2,1
18,25,"m","0","0",1,1,15,0,"1a",1,3.484345,2,1.050705,"atonal","std",2,0
18,25,"m","0","0",1,1,16,16,"5a",2,2.832315,1,3.969275,"atonal","std",2,1
18,25,"m","0","0",1,1,17,24,"1a",1,3.935075,1,0.616,"tonal","std",2,0
18,25,"m","0","0",1,1,18,36,"4a",2,3.39962,3,1.73909,"tonal","std",2,1
18,25,"m","0","0",1,1,19,35,"3b",2,1.754825,6,1.21707,"tonal","dev",1,0
18,25,"m","0","0",1,1,20,10,"3b",1,1.816135,4,2.050535,"atonal","std",2,0
18,25,"m","0","0",1,1,21,38,"4b",2,9.150495,5,2.267665,"tonal","std",2,1
18,25,"m","0","0",1,1,22,6,"2b",2,2.03218,1,1.721945,"atonal","std",2,1
18,25,"m","0","0",1,1,23,44,"6a",1,0.69967,2,1.820905,"tonal","std",2,0
18,25,"m","0","0",1,1,24,9,"3a",1,1.087355,7,1.08464,"atonal","dev",1,1
18,25,"m","0","0",1,1,25,20,"6a",1,11.18878,1,1.1542,"atonal","std",2,0
18,25,"m","0","0",1,1,26,19,"5b",1,0.484565,6,1.26608,"atonal","dev",1,1
18,25,"m","0","0",1,1,27,15,"4b",1,0.517385,7,1.133435,"atonal","dev",1,1
18,25,"m","0","0",1,1,28,34,"3b",2,1.30043,5,2.0181,"tonal","std",2,1
18,25,"m","0","0",1,1,29,32,"3a",2,2.634715,2,1.1198,"tonal","std",2,1
18,25,"m","0","0",1,1,30,28,"2a",1,1.218225,6,5.684525,"tonal","std",2,0
18,25,"m","0","0",1,1,31,31,"2b",2,0.73318,5,2.867415,"tonal","dev",1,0
18,25,"m","0","0",1,1,32,17,"5a",1,0.817475,7,0.903505,"atonal","dev",1,1
18,25,"m","0","0",1,1,33,23,"6b",2,2.452505,1,1.76696,"atonal","dev",1,0
18,25,"m","0","0",1,1,34,2,"1b",1,0.5193,2,1.468975,"atonal","std",2,0
18,25,"m","0","0",1,1,35,1,"1a",2,9.499995,1,1.600635,"atonal","dev",1,0
18,25,"m","0","0",1,1,36,8,"3a",1,2.41637,2,1.884255,"atonal","std",2,0
18,25,"m","0","0",1,1,37,30,"2b",2,1.16752,7,0.83395,"tonal","std",2,1
18,25,"m","0","0",1,1,38,26,"1b",2,3.86714,6,1.184115,"tonal","std",2,1
18,25,"m","0","0",1,1,39,47,"6b",1,1.51647,7,1.517475,"tonal","dev",1,1
18,25,"m","0","0",1,1,40,33,"3a",1,1.61907,6,0.569255,"tonal","dev",1,1
18,25,"m","0","0",1,1,41,29,"2a",2,5.033465,3,0.63475,"tonal","dev",1,0
18,25,"m","0","0",1,1,42,3,"1b",1,3.3495,4,2.43412,"atonal","dev",1,1
18,25,"m","0","0",1,1,43,5,"2a",2,3.166335,5,3.90178,"atonal","dev",1,0
18,25,"m","0","0",1,1,44,18,"5b",1,1.683795,3,5.83374,"atonal","std",2,0
18,25,"m","0","0",1,1,45,27,"1b",1,2.532785,6,1.51777,"tonal","dev",1,1
18,25,"m","0","0",1,1,46,13,"4a",1,0.72198,3,1.916295,"atonal","dev",1,1
18,25,"m","0","0",1,1,47,14,"4b",2,4.85123,2,0.31637,"atonal","std",2,1
19,32,"m","0","0",1,1,0,37,"4a",2,3.96671,6,2.856505,"tonal","dev",1,0
19,32,"m","0","0",1,1,1,18,"5b",2,1.80161,6,0.19738,"atonal","std",2,1
19,32,"m","0","0",1,1,2,20,"6a",1,1.367015,5,0.484895,"atonal","std",2,0
19,32,"m","0","0",1,1,3,9,"3a",2,3.198525,2,2.72568,"atonal","dev",1,0
19,32,"m","0","0",1,1,4,16,"5a",2,1.04831,7,1.290435,"atonal","std",2,1
19,32,"m","0","0",1,1,5,29,"2a",1,0.93352,6,2.971795,"tonal","dev",1,1
19,32,"m","0","0",1,1,6,25,"1a",1,2.46755,5,1.89891,"tonal","dev",1,1
19,32,"m","0","0",1,1,7,33,"3a",2,0.56798,6,1.11666,"tonal","dev",1,0
19,32,"m","0","0",1,1,8,7,"2b",2,1.48431,6,1.234455,"atonal","dev",1,0
19,32,"m","0","0",1,1,9,8,"3a",2,5.921825,6,0.10005,"atonal","std",2,1
19,32,"m","0","0",1,1,10,23,"6b",1,1.62074,5,0.167875,"atonal","dev",1,1
19,32,"m","0","0",1,1,11,14,"4b",2,5.081565,5,0.084515,"atonal","std",2,1
19,32,"m","0","0",1,1,12,31,"2b",1,1.05087,6,0.553475,"tonal","dev",1,1
19,32,"m","0","0",1,1,13,15,"4b",1,1.18409,6,0.28589,"atonal","dev",1,1
19,32,"m","0","0",1,1,14,28,"2a",2,1.734025,4,0.800485,"tonal","std",2,1
19,32,"m","0","0",1,1,15,5,"2a",1,1.01186,6,0.40203,"atonal","dev",1,1
19,32,"m","0","0",1,1,16,39,"4b",1,2.533765,4,0.303245,"tonal","dev",1,1
19,32,"m","0","0",1,1,17,26,"1b",2,1.285425,5,0.954615,"tonal","std",2,1
19,32,"m","0","0",1,1,18,46,"6b",1,0.757625,3,2.000285,"tonal","std",2,0
19,32,"m","0","0",1,1,19,22,"6b",2,0.81884,5,1.183735,"atonal","std",2,1
19,32,"m","0","0",1,1,20,44,"6a",2,0.80119,6,1.683935,"tonal","std",2,1
19,32,"m","0","0",1,1,21,2,"1b",2,1.36615,6,0.26677,"atonal","std",2,1
19,32,"m","0","0",1,1,22,35,"3b",1,0.96658,5,0.989415,"tonal","dev",1,1
19,32,"m","0","0",1,1,23,40,"5a",2,0.768405,6,1.35303,"tonal","std",2,1
19,32,"m","0","0",1,1,24,10,"3b",2,2.33364,4,0.1848,"atonal","std",2,1
19,32,"m","0","0",1,1,25,27,"1b",2,6.24796,4,1.274905,"tonal","dev",1,0
19,32,"m","0","0",1,1,26,11,"3b",1,0.675215,5,1.55058,"atonal","dev",1,1
19,32,"m","0","0",1,1,27,32,"3a",2,0.940625,6,1.384495,"tonal","std",2,1
19,32,"m","0","0",1,1,28,12,"4a",1,2.137935,4,0.451255,"atonal","std",2,0
19,32,"m","0","0",1,1,29,36,"4a",1,1.07928,5,1.444995,"tonal","std",2,0
19,32,"m","0","0",1,1,30,1,"1a",2,0.458855,5,0.13369,"atonal","dev",1,0
19,32,"m","0","0",1,1,31,17,"5a",1,0.951775,6,0.55073,"atonal","dev",1,1
19,32,"m","0","0",1,1,32,43,"5b",2,1.6354,6,0.802225,"tonal","dev",1,0
19,32,"m","0","0",1,1,33,47,"6b",1,0.51102,5,0.15108,"tonal","dev",1,1
19,32,"m","0","0",1,1,34,38,"4b",2,0.467035,7,0.137415,"tonal","std",2,1
19,32,"m","0","0",1,1,35,3,"1b",1,1.70196,5,0.21889,"atonal","dev",1,1
19,32,"m","0","0",1,1,36,41,"5a",2,1.484205,6,0.423485,"tonal","dev",1,0
19,32,"m","0","0",1,1,37,42,"5b",2,8.26388,4,1.73712,"tonal","std",2,1
19,32,"m","0","0",1,1,38,34,"3b",2,25.607035,4,0.088245,"tonal","std",2,1
19,32,"m","0","0",1,1,39,19,"5b",1,0.401525,5,0.08734,"atonal","dev",1,1
19,32,"m","0","0",1,1,40,4,"2a",2,1.454035,5,0.183305,"atonal","std",2,1
19,32,"m","0","0",1,1,41,45,"6a",1,0.43408,5,0.10129,"tonal","dev",1,1
19,32,"m","0","0",1,1,42,30,"2b",2,1.588205,6,0.30057,"tonal","std",2,1
19,32,"m","0","0",1,1,43,24,"1a",1,0.737145,6,0.23572,"tonal","std",2,0
19,32,"m","0","0",1,1,44,13,"4a",2,0.47901,6,0.377545,"atonal","dev",1,0
19,32,"m","0","0",1,1,45,0,"1a",2,2.58883,5,0.540705,"atonal","std",2,1
19,32,"m","0","0",1,1,46,6,"2b",1,2.170735,5,0.86712,"atonal","std",2,0
19,32,"m","0","0",1,1,47,21,"6a",1,1.019865,6,0.291255,"atonal","dev",1,1
20,83,"m","4","13",1,1,0,13,"4a",1,3.735,7,3.102,"atonal","dev",1,1
20,83,"m","4","13",1,1,1,24,"1a",1,5.768,2,4.86,"tonal","std",2,0
20,83,"m","4","13",1,1,2,22,"6b",1,2.247,6,3.769,"atonal","std",2,0
20,83,"m","4","13",1,1,3,19,"5b",1,5.743,4,3.235,"atonal","dev",1,1
20,83,"m","4","13",1,1,4,45,"6a",1,3.973,4,2.512,"tonal","dev",1,1
20,83,"m","4","13",1,1,5,2,"1b",2,6.415,4,2.035,"atonal","std",2,1
20,83,"m","4","13",1,1,6,12,"4a",2,2.969,4,1.894,"atonal","std",2,1
20,83,"m","4","13",1,1,7,33,"3a",2,2.38,4,1.973,"tonal","dev",1,0
20,83,"m","4","13",1,1,8,43,"5b",2,2.658,4,1.603,"tonal","dev",1,0
20,83,"m","4","13",1,1,9,17,"5a",2,2.003,4,1.893,"atonal","dev",1,0
20,83,"m","4","13",1,1,10,7,"2b",2,2.677,4,1.368,"atonal","dev",1,0
20,83,"m","4","13",1,1,11,32,"3a",2,1.868,4,1.39,"tonal","std",2,1
20,83,"m","4","13",1,1,12,27,"1b",1,1.524,4,2.369,"tonal","dev",1,1
20,83,"m","4","13",1,1,13,16,"5a",2,1.469,4,1.703,"atonal","std",2,1
20,83,"m","4","13",1,1,14,23,"6b",2,2.037,4,1.603,"atonal","dev",1,0
20,83,"m","4","13",1,1,15,9,"3a",2,1.801,4,1.426,"atonal","dev",1,0
20,83,"m","4","13",1,1,16,38,"4b",2,0.54,4,0.662,"tonal","std",2,1
20,83,"m","4","13",1,1,17,37,"4a",2,2.47,4,0.894,"tonal","dev",1,0
20,83,"m","4","13",1,1,18,35,"3b",1,0.8,4,2.152,"tonal","dev",1,1
20,83,"m","4","13",1,1,19,41,"5a",2,2.781,4,1.261,"tonal","dev",1,0
20,83,"m","4","13",1,1,20,18,"5b",2,2.793,4,1.004,"atonal","std",2,1
20,83,"m","4","13",1,1,21,8,"3a",2,2.11,4,0.673,"atonal","std",2,1
20,83,"m","4","13",1,1,22,1,"1a",2,1.97,4,0.973,"atonal","dev",1,0
20,83,"m","4","13",1,1,23,20,"6a",2,1.647,4,0.936,"atonal","std",2,1
20,83,"m","4","13",1,1,24,29,"2a",2,1.095,4,0.618,"tonal","dev",1,0
20,83,"m","4","13",1,1,25,15,"4b",2,1.581,4,0.736,"atonal","dev",1,0
20,83,"m","4","13",1,1,26,25,"1a",2,1.448,4,0.635,"tonal","dev",1,0
20,83,"m","4","13",1,1,27,3,"1b",2,1.693,4,1.213,"atonal","dev",1,0
20,83,"m","4","13",1,1,28,34,"3b",2,1.503,4,4.955,"tonal","std",2,1
20,83,"m","4","13",1,1,29,47,"6b",2,2.601,4,0.88,"tonal","dev",1,0
20,83,"m","4","13",1,1,30,10,"3b",2,4.27,4,0.985,"atonal","std",2,1
20,83,"m","4","13",1,1,31,14,"4b",2,1.371,4,0.653,"atonal","std",2,1
20,83,"m","4","13",1,1,32,44,"6a",2,1.294,4,0.783,"tonal","std",2,1
20,83,"m","4","13",1,1,33,28,"2a",2,0.935,4,0.544,"tonal","std",2,1
20,83,"m","4","13",1,1,34,0,"1a",2,1.36,4,1.211,"atonal","std",2,1
20,83,"m","4","13",1,1,35,11,"3b",2,1.041,4,0.521,"atonal","dev",1,0
20,83,"m","4","13",1,1,36,36,"4a",2,0.513,4,0.608,"tonal","std",2,1
20,83,"m","4","13",1,1,37,46,"6b",2,0.569,4,0.591,"tonal","std",2,1
20,83,"m","4","13",1,1,38,6,"2b",2,0.685,4,0.503,"atonal","std",2,1
20,83,"m","4","13",1,1,39,21,"6a",1,1.078,4,2.048,"atonal","dev",1,1
20,83,"m","4","13",1,1,40,42,"5b",2,0.734,4,0.635,"tonal","std",2,1
20,83,"m","4","13",1,1,41,30,"2b",2,1.35,4,0.602,"tonal","std",2,1
20,83,"m","4","13",1,1,42,4,"2a",1,0.836,4,1.071,"atonal","std",2,0
20,83,"m","4","13",1,1,43,40,"5a",1,0.602,4,0.557,"tonal","std",2,0
20,83,"m","4","13",1,1,44,26,"1b",2,2.487,4,0.553,"tonal","std",2,1
20,83,"m","4","13",1,1,45,31,"2b",2,0.77,4,0.436,"tonal","dev",1,0
20,83,"m","4","13",1,1,46,5,"2a",1,0.941,4,1.477,"atonal","dev",1,1
20,83,"m","4","13",1,1,47,39,"4b",2,0.635,4,0.585,"tonal","dev",1,0
21,31,"f","0","0",1,1,0,19,"5b",1,1.23474,6,1.02569,"atonal","dev",1,1
21,31,"f","0","0",1,1,1,5,"2a",2,4.263825,2,0.53603,"atonal","dev",1,0
21,31,"f","0","0",1,1,2,4,"2a",1,0.900715,6,1.883405,"atonal","std",2,0
21,31,"f","0","0",1,1,3,26,"1b",1,0.713315,6,0.667695,"tonal","std",2,0
21,31,"f","0","0",1,1,4,24,"1a",2,0.58267,5,0.330375,"tonal","std",2,1
21,31,"f","0","0",1,1,5,8,"3a",2,0.908875,5,0.273595,"atonal","std",2,1
21,31,"f","0","0",1,1,6,0,"1a",2,0.716835,5,0.40587,"atonal","std",2,1
21,31,"f","0","0",1,1,7,42,"5b",1,1.00126,5,0.509445,"tonal","std",2,0
21,31,"f","0","0",1,1,8,2,"1b",1,0.589295,5,0.335675,"atonal","std",2,0
21,31,"f","0","0",1,1,9,45,"6a",2,1.10801,5,0.25483,"tonal","dev",1,0
21,31,"f","0","0",1,1,10,29,"2a",1,0.772565,6,0.476475,"tonal","dev",1,1
21,31,"f","0","0",1,1,11,23,"6b",1,0.619045,1,0.87974,"atonal","dev",1,1
21,31,"f","0","0",1,1,12,17,"5a",1,0.98287,7,0.2879,"atonal","dev",1,1
21,31,"f","0","0",1,1,13,28,"2a",2,0.65145,6,0.319435,"tonal","std",2,1
21,31,"f","0","0",1,1,14,20,"6a",1,0.65095,6,0.307175,"atonal","std",2,0
21,31,"f","0","0",1,1,15,39,"4b",1,0.45562,5,0.26866,"tonal","dev",1,1
21,31,"f","0","0",1,1,16,36,"4a",1,0.925145,4,0.244675,"tonal","std",2,0
21,31,"f","0","0",1,1,17,35,"3b",1,1.191945,5,0.83398,"tonal","dev",1,1
21,31,"f","0","0",1,1,18,34,"3b",1,1.12599,5,0.48444,"tonal","std",2,0
21,31,"f","0","0",1,1,19,16,"5a",1,1.48564,5,1.817945,"atonal","std",2,0
21,31,"f","0","0",1,1,20,25,"1a",2,0.78544,5,0.16129,"tonal","dev",1,0
21,31,"f","0","0",1,1,21,9,"3a",2,0.57972,5,0.18131,"atonal","dev",1,0
21,31,"f","0","0",1,1,22,31,"2b",1,0.861405,5,1.80825,"tonal","dev",1,1
21,31,"f","0","0",1,1,23,47,"6b",1,0.923325,5,1.22984,"tonal","dev",1,1
21,31,"f","0","0",1,1,24,33,"3a",1,0.04479,1,0.939165,"tonal","dev",1,1
21,31,"f","0","0",1,1,25,41,"5a",2,1.46723,5,0.200725,"tonal","dev",1,0
21,31,"f","0","0",1,1,26,32,"3a",2,0.70433,6,0.790605,"tonal","std",2,1
21,31,"f","0","0",1,1,27,11,"3b",2,0.63084,6,0.28411,"atonal","dev",1,0
21,31,"f","0","0",1,1,28,30,"2b",2,0.62451,5,0.18449,"tonal","std",2,1
21,31,"f","0","0",1,1,29,37,"4a",2,0.690885,5,0.29139,"tonal","dev",1,0
21,31,"f","0","0",1,1,30,6,"2b",1,0.717975,5,0.284485,"atonal","std",2,0
21,31,"f","0","0",1,1,31,12,"4a",1,0.823,5,0.22641,"atonal","std",2,0
21,31,"f","0","0",1,1,32,15,"4b",1,1.417135,6,0.6615,"atonal","dev",1,1
21,31,"f","0","0",1,1,33,18,"5b",1,0.734115,5,0.57654,"atonal","std",2,0
21,31,"f","0","0",1,1,34,13,"4a",1,0.69668,6,0.270445,"atonal","dev",1,1
21,31,"f","0","0",1,1,35,44,"6a",2,0.522105,6,0.1935,"tonal","std",2,1
21,31,"f","0","0",1,1,36,27,"1b",2,0.70077,7,0.762945,"tonal","dev",1,0
21,31,"f","0","0",1,1,37,1,"1a",2,0.77947,5,0.472375,"atonal","dev",1,0
21,31,"f","0","0",1,1,38,43,"5b",1,0.60054,5,0.23461,"tonal","dev",1,1
21,31,"f","0","0",1,1,39,10,"3b",2,0.572115,5,0.39424,"atonal","std",2,1
21,31,"f","0","0",1,1,40,14,"4b",2,0.75039,5,0.25068,"atonal","std",2,1
21,31,"f","0","0",1,1,41,7,"2b",1,1.221745,5,0.29526,"atonal","dev",1,1
21,31,"f","0","0",1,1,42,3,"1b",1,0.52709,5,0.200795,"atonal","dev",1,1
21,31,"f","0","0",1,1,43,40,"5a",2,0.51747,5,0.193755,"tonal","std",2,1
21,31,"f","0","0",1,1,44,22,"6b",2,0.77268,5,0.267245,"atonal","std",2,1
21,31,"f","0","0",1,1,45,38,"4b",1,0.99377,5,0.192425,"tonal","std",2,0
21,31,"f","0","0",1,1,46,46,"6b",2,0.54448,5,0.16766,"tonal","std",2,1
21,31,"f","0","0",1,1,47,21,"6a",2,0.739235,5,0.13372,"atonal","dev",1,0
22,34,"m","0","0",1,1,0,25,"1a",1,4.569,4,2.469,"tonal","dev",1,1
22,34,"m","0","0",1,1,1,20,"6a",2,2.07,4,1.003,"atonal","std",2,1
22,34,"m","0","0",1,1,2,21,"6a",1,3.971,4,1.083,"atonal","dev",1,1
22,34,"m","0","0",1,1,3,11,"3b",2,0.786,4,1.441,"atonal","dev",1,0
22,34,"m","0","0",1,1,4,7,"2b",1,0.905,4,0.368,"atonal","dev",1,1
22,34,"m","0","0",1,1,5,40,"5a",2,0.584,4,0.387,"tonal","std",2,1
22,34,"m","0","0",1,1,6,12,"4a",2,0.569,4,0.636,"atonal","std",2,1
22,34,"m","0","0",1,1,7,9,"3a",2,3.884,2,1.637,"atonal","dev",1,0
22,34,"m","0","0",1,1,8,22,"6b",2,2.436,1,1.67,"atonal","std",2,1
22,34,"m","0","0",1,1,9,33,"3a",1,0.886,3,1.502,"tonal","dev",1,1
22,34,"m","0","0",1,1,10,18,"5b",2,0.854,3,1.903,"atonal","std",2,1
22,34,"m","0","0",1,1,11,1,"1a",2,1.156,2,0.786,"atonal","dev",1,0
22,34,"m","0","0",1,1,12,44,"6a",2,0.703,2,0.483,"tonal","std",2,1
22,34,"m","0","0",1,1,13,3,"1b",1,1.119,3,0.92,"atonal","dev",1,1
22,34,"m","0","0",1,1,14,41,"5a",2,0.991,5,3.071,"tonal","dev",1,0
22,34,"m","0","0",1,1,15,10,"3b",2,1.908,2,1.352,"atonal","std",2,1
22,34,"m","0","0",1,1,16,0,"1a",1,4.919,2,0.823,"atonal","std",2,0
22,34,"m","0","0",1,1,17,30,"2b",2,1.153,3,0.851,"tonal","std",2,1
22,34,"m","0","0",1,1,18,19,"5b",2,2.17,2,0.285,"atonal","dev",1,0
22,34,"m","0","0",1,1,19,6,"2b",2,1.202,2,0.433,"atonal","std",2,1
22,34,"m","0","0",1,1,20,34,"3b",2,16.674,3,0.552,"tonal","std",2,1
22,34,"m","0","0",1,1,21,27,"1b",1,8.402,5,2.404,"tonal","dev",1,1
22,34,"m","0","0",1,1,22,23,"6b",1,1.687,3,1.987,"atonal","dev",1,1
22,34,"m","0","0",1,1,23,24,"1a",2,10.236,1,1.12,"tonal","std",2,1
22,34,"m","0","0",1,1,24,5,"2a",1,7.519,3,1.738,"atonal","dev",1,1
22,34,"m","0","0",1,1,25,36,"4a",2,0.701,3,1.204,"tonal","std",2,1
22,34,"m","0","0",1,1,26,42,"5b",2,1.453,3,0.889,"tonal","std",2,1
22,34,"m","0","0",1,1,27,31,"2b",2,0.591,4,2.203,"tonal","dev",1,0
22,34,"m","0","0",1,1,28,38,"4b",2,0.922,3,0.671,"tonal","std",2,1
22,34,"m","0","0",1,1,29,39,"4b",1,0.451,5,2.053,"tonal","dev",1,1
22,34,"m","0","0",1,1,30,4,"2a",1,0.976,2,0.783,"atonal","std",2,0
22,34,"m","0","0",1,1,31,37,"4a",1,0.552,3,1.235,"tonal","dev",1,1
22,34,"m","0","0",1,1,32,15,"4b",1,0.639,4,1.92,"atonal","dev",1,1
22,34,"m","0","0",1,1,33,43,"5b",2,1.439,2,0.587,"tonal","dev",1,0
22,34,"m","0","0",1,1,34,8,"3a",2,2.569,1,0.816,"atonal","std",2,1
22,34,"m","0","0",1,1,35,47,"6b",1,1.352,5,1.484,"tonal","dev",1,1
22,34,"m","0","0",1,1,36,2,"1b",1,3.368,3,1.237,"atonal","std",2,0
22,34,"m","0","0",1,1,37,32,"3a",2,0.953,4,2.17,"tonal","std",2,1
22,34,"m","0","0",1,1,38,14,"4b",2,3.037,2,0.352,"atonal","std",2,1
22,34,"m","0","0",1,1,39,29,"2a",1,1.303,5,3.852,"tonal","dev",1,1
22,34,"m","0","0",1,1,40,16,"5a",1,2.201,2,0.326,"atonal","std",2,0
22,34,"m","0","0",1,1,41,45,"6a",1,2.766,4,2.901,"tonal","dev",1,1
22,34,"m","0","0",1,1,42,46,"6b",2,4.085,2,0.133,"tonal","std",2,1
22,34,"m","0","0",1,1,43,13,"4a",1,1.304,5,0.92,"atonal","dev",1,1
22,34,"m","0","0",1,1,44,26,"1b",2,1.936,3,0.303,"tonal","std",2,1
22,34,"m","0","0",1,1,45,17,"5a",1,1.085,3,1.238,"atonal","dev",1,1
22,34,"m","0","0",1,1,46,35,"3b",1,0.392,3,0.254,"tonal","dev",1,1
22,34,"m","0","0",1,1,47,28,"2a",2,0.284,3,0.486,"tonal","std",2,1
23,36,"m","0","0",1,1,0,0,"1a",1,1.51834,7,1.951795,"atonal","std",2,0
23,36,"m","0","0",1,1,1,7,"2b",2,4.134775,1,1.684915,"atonal","dev",1,0
23,36,"m","0","0",1,1,2,12,"4a",1,1.5194,5,1.18618,"atonal","std",2,0
23,36,"m","0","0",1,1,3,47,"6b",1,2.23861,5,2.58546,"tonal","dev",1,1
23,36,"m","0","0",1,1,4,40,"5a",1,3.801875,5,1.83506,"tonal","std",2,0
23,36,"m","0","0",1,1,5,3,"1b",2,2.239215,6,1.2357,"atonal","dev",1,0
23,36,"m","0","0",1,1,6,17,"5a",1,6.28777,5,1.452065,"atonal","dev",1,1
23,36,"m","0","0",1,1,7,23,"6b",2,3.90429,2,3.801355,"atonal","dev",1,0
23,36,"m","0","0",1,1,8,22,"6b",2,2.30231,2,1.202345,"atonal","std",2,1
23,36,"m","0","0",1,1,9,19,"5b",1,5.75383,3,3.069145,"atonal","dev",1,1
23,36,"m","0","0",1,1,10,14,"4b",2,3.735215,4,2.43491,"atonal","std",2,1
23,36,"m","0","0",1,1,11,27,"1b",1,1.97395,3,5.168565,"tonal","dev",1,1
23,36,"m","0","0",1,1,12,16,"5a",2,1.51833,6,2.838725,"atonal","std",2,1
23,36,"m","0","0",1,1,13,5,"2a",1,9.21017,6,1.51605,"atonal","dev",1,1
23,36,"m","0","0",1,1,14,34,"3b",1,3.287195,5,1.21703,"tonal","std",2,0
23,36,"m","0","0",1,1,15,41,"5a",1,4.23841,3,3.485875,"tonal","dev",1,1
23,36,"m","0","0",1,1,16,4,"2a",2,6.77202,3,3.117165,"atonal","std",2,1
23,36,"m","0","0",1,1,17,33,"3a",2,1.58738,6,1.66952,"tonal","dev",1,0
23,36,"m","0","0",1,1,18,6,"2b",2,1.389605,6,2.03721,"atonal","std",2,1
23,36,"m","0","0",1,1,19,2,"1b",1,2.27048,6,1.06945,"atonal","std",2,0
23,36,"m","0","0",1,1,20,21,"6a",1,4.503145,5,1.219055,"atonal","dev",1,1
23,36,"m","0","0",1,1,21,11,"3b",2,2.604835,6,2.467075,"atonal","dev",1,0
23,36,"m","0","0",1,1,22,15,"4b",1,1.452405,3,1.419185,"atonal","dev",1,1
23,36,"m","0","0",1,1,23,25,"1a",1,6.588375,5,1.76779,"tonal","dev",1,1
23,36,"m","0","0",1,1,24,1,"1a",1,1.671915,6,1.38557,"atonal","dev",1,1
23,36,"m","0","0",1,1,25,20,"6a",1,4.92049,6,1.218805,"atonal","std",2,0
23,36,"m","0","0",1,1,26,24,"1a",1,7.803755,6,1.40057,"tonal","std",2,0
23,36,"m","0","0",1,1,27,32,"3a",2,4.23552,4,1.17026,"tonal","std",2,1
23,36,"m","0","0",1,1,28,39,"4b",1,1.602155,3,1.83544,"tonal","dev",1,1
23,36,"m","0","0",1,1,29,29,"2a",1,0.952255,5,2.136165,"tonal","dev",1,1
23,36,"m","0","0",1,1,30,18,"5b",2,1.551315,1,3.456825,"atonal","std",2,1
23,36,"m","0","0",1,1,31,42,"5b",1,0.986805,5,1.083555,"tonal","std",2,0
23,36,"m","0","0",1,1,32,26,"1b",2,2.535305,1,3.150365,"tonal","std",2,1
23,36,"m","0","0",1,1,33,44,"6a",2,1.48952,1,1.123765,"tonal","std",2,1
23,36,"m","0","0",1,1,34,38,"4b",1,1.35202,3,1.634055,"tonal","std",2,0
23,36,"m","0","0",1,1,35,35,"3b",1,0.815315,5,1.271095,"tonal","dev",1,1
23,36,"m","0","0",1,1,36,13,"4a",2,2.701875,4,1.556785,"atonal","dev",1,0
23,36,"m","0","0",1,1,37,45,"6a",2,1.408655,3,2.788045,"tonal","dev",1,0
23,36,"m","0","0",1,1,38,8,"3a",1,2.334205,5,2.073025,"atonal","std",2,0
23,36,"m","0","0",1,1,39,37,"4a",1,1.13465,5,4.090865,"tonal","dev",1,1
23,36,"m","0","0",1,1,40,10,"3b",2,1.418445,5,1.25646,"atonal","std",2,1
23,36,"m","0","0",1,1,41,31,"2b",2,1.48447,4,1.03558,"tonal","dev",1,0
23,36,"m","0","0",1,1,42,28,"2a",2,174.664895,1,1.16067,"tonal","std",2,1
23,36,"m","0","0",1,1,43,30,"2b",2,1.68583,5,2.407655,"tonal","std",2,1
23,36,"m","0","0",1,1,44,46,"6b",1,1.087135,5,0.98051,"tonal","std",2,0
23,36,"m","0","0",1,1,45,36,"4a",1,0.82178,5,0.836025,"tonal","std",2,0
23,36,"m","0","0",1,1,46,43,"5b",2,1.968115,1,0.88946,"tonal","dev",1,0
23,36,"m","0","0",1,1,47,9,"3a",1,1.134505,5,2.068005,"atonal","dev",1,1
24,40,"f","35","5",2,5,0,8,"3a",1,1.379,7,2.653,"atonal","std",2,0
24,40,"f","35","5",2,5,1,15,"4b",1,0.517,7,0.943,"atonal","dev",1,1
24,40,"f","35","5",2,5,2,46,"6b",2,1.46,4,2.681,"tonal","std",2,1
24,40,"f","35","5",2,5,3,9,"3a",1,6.014,6,3.424,"atonal","dev",1,1
24,40,"f","35","5",2,5,4,42,"5b",1,0.994,7,0.73,"tonal","std",2,0
24,40,"f","35","5",2,5,5,6,"2b",2,0.985,7,1.437,"atonal","std",2,1
24,40,"f","35","5",2,5,6,3,"1b",2,3.182,6,1.197,"atonal","dev",1,0
24,40,"f","35","5",2,5,7,32,"3a",2,1.502,7,0.743,"tonal","std",2,1
24,40,"f","35","5",2,5,8,23,"6b",2,3.007,6,1.35,"atonal","dev",1,0
24,40,"f","35","5",2,5,9,44,"6a",2,1.249,6,0.737,"tonal","std",2,1
24,40,"f","35","5",2,5,10,27,"1b",2,0.647,6,0.82,"tonal","dev",1,0
24,40,"f","35","5",2,5,11,7,"2b",2,0.597,6,0.533,"atonal","dev",1,0
24,40,"f","35","5",2,5,12,21,"6a",2,1.556,6,0.533,"atonal","dev",1,0
24,40,"f","35","5",2,5,13,2,"1b",2,0.344,7,0.527,"atonal","std",2,1
24,40,"f","35","5",2,5,14,11,"3b",2,0.404,6,0.952,"atonal","dev",1,0
24,40,"f","35","5",2,5,15,0,"1a",1,1.18,6,0.861,"atonal","std",2,0
24,40,"f","35","5",2,5,16,18,"5b",2,1.698,6,1.064,"atonal","std",2,1
24,40,"f","35","5",2,5,17,28,"2a",2,1.161,6,1.201,"tonal","std",2,1
24,40,"f","35","5",2,5,18,33,"3a",2,1.112,7,1.086,"tonal","dev",1,0
24,40,"f","35","5",2,5,19,25,"1a",2,1.069,6,0.525,"tonal","dev",1,0
24,40,"f","35","5",2,5,20,22,"6b",2,0.968,6,0.468,"atonal","std",2,1
24,40,"f","35","5",2,5,21,10,"3b",2,0.326,6,0.469,"atonal","std",2,1
24,40,"f","35","5",2,5,22,41,"5a",2,1.77,6,0.863,"tonal","dev",1,0
24,40,"f","35","5",2,5,23,14,"4b",2,1.567,6,0.331,"atonal","std",2,1
24,40,"f","35","5",2,5,24,19,"5b",1,0.387,6,0.402,"atonal","dev",1,1
24,40,"f","35","5",2,5,25,47,"6b",2,1.243,6,0.597,"tonal","dev",1,0
24,40,"f","35","5",2,5,26,36,"4a",1,0.39,7,0.529,"tonal","std",2,0
24,40,"f","35","5",2,5,27,24,"1a",2,0.587,7,0.861,"tonal","std",2,1
24,40,"f","35","5",2,5,28,38,"4b",2,0.582,7,0.471,"tonal","std",2,1
24,40,"f","35","5",2,5,29,5,"2a",2,0.261,6,0.67,"atonal","dev",1,0
24,40,"f","35","5",2,5,30,4,"2a",1,0.463,6,0.529,"atonal","std",2,0
24,40,"f","35","5",2,5,31,39,"4b",2,0.391,7,0.467,"tonal","dev",1,0
24,40,"f","35","5",2,5,32,37,"4a",2,0.398,7,0.402,"tonal","dev",1,0
24,40,"f","35","5",2,5,33,34,"3b",2,0.327,7,0.471,"tonal","std",2,1
24,40,"f","35","5",2,5,34,17,"5a",1,0.915,6,0.602,"atonal","dev",1,1
24,40,"f","35","5",2,5,35,26,"1b",2,0.589,7,0.461,"tonal","std",2,1
24,40,"f","35","5",2,5,36,1,"1a",2,1.36,6,0.392,"atonal","dev",1,0
24,40,"f","35","5",2,5,37,31,"2b",1,0.784,6,0.467,"tonal","dev",1,1
24,40,"f","35","5",2,5,38,12,"4a",2,0.387,6,0.888,"atonal","std",2,1
24,40,"f","35","5",2,5,39,16,"5a",2,0.985,6,0.336,"atonal","std",2,1
24,40,"f","35","5",2,5,40,35,"3b",1,0.327,7,0.614,"tonal","dev",1,1
24,40,"f","35","5",2,5,41,13,"4a",2,0.325,6,0.617,"atonal","dev",1,0
24,40,"f","35","5",2,5,42,45,"6a",2,0.541,6,0.401,"tonal","dev",1,0
24,40,"f","35","5",2,5,43,30,"2b",2,0.329,7,0.945,"tonal","std",2,1
24,40,"f","35","5",2,5,44,43,"5b",1,0.774,7,0.599,"tonal","dev",1,1
24,40,"f","35","5",2,5,45,29,"2a",1,0.389,7,0.463,"tonal","dev",1,1
24,40,"f","35","5",2,5,46,20,"6a",2,0.91,6,0.664,"atonal","std",2,1
24,40,"f","35","5",2,5,47,40,"5a",1,2.509,6,0.818,"tonal","std",2,0
25,24,"f","1","6",1,5,0,37,"4a",2,2.93918,6,6.44488,"tonal","dev",1,0
25,24,"f","1","6",1,5,1,24,"1a",2,2.47019,4,7.34739,"tonal","std",2,1
25,24,"f","1","6",1,5,2,41,"5a",2,2.463705,4,1.96831,"tonal","dev",1,0
25,24,"f","1","6",1,5,3,4,"2a",2,2.474245,4,2.007645,"atonal","std",2,1
25,24,"f","1","6",1,5,4,29,"2a",1,1.999995,6,2.73996,"tonal","dev",1,1
25,24,"f","1","6",1,5,5,6,"2b",2,2.14992,4,1.084785,"atonal","std",2,1
25,24,"f","1","6",1,5,6,3,"1b",2,2.965995,1,1.026255,"atonal","dev",1,0
25,24,"f","1","6",1,5,7,1,"1a",1,3.535565,3,2.49925,"atonal","dev",1,1
25,24,"f","1","6",1,5,8,25,"1a",2,3.010365,1,0.918165,"tonal","dev",1,0
25,24,"f","1","6",1,5,9,14,"4b",2,2.583265,1,0.3374,"atonal","std",2,1
25,24,"f","1","6",1,5,10,8,"3a",2,2.00156,2,1.417915,"atonal","std",2,1
25,24,"f","1","6",1,5,11,36,"4a",2,2.23367,1,1.067435,"tonal","std",2,1
25,24,"f","1","6",1,5,12,11,"3b",2,2.517535,1,1.117565,"atonal","dev",1,0
25,24,"f","1","6",1,5,13,32,"3a",2,2.071095,2,1.116925,"tonal","std",2,1
25,24,"f","1","6",1,5,14,18,"5b",1,2.832015,1,0.544555,"atonal","std",2,0
25,24,"f","1","6",1,5,15,16,"5a",2,2.133585,2,0.573735,"atonal","std",2,1
25,24,"f","1","6",1,5,16,10,"3b",2,2.177365,2,0.37446,"atonal","std",2,1
25,24,"f","1","6",1,5,17,22,"6b",2,1.735745,1,0.317745,"atonal","std",2,1
25,24,"f","1","6",1,5,18,39,"4b",1,2.27305,1,0.38573,"tonal","dev",1,1
25,24,"f","1","6",1,5,19,38,"4b",2,2.172875,1,0.39639,"tonal","std",2,1
25,24,"f","1","6",1,5,20,9,"3a",1,1.72483,4,2.73246,"atonal","dev",1,1
25,24,"f","1","6",1,5,21,13,"4a",1,1.460625,5,1.36206,"atonal","dev",1,1
25,24,"f","1","6",1,5,22,17,"5a",1,1.521975,5,2.84944,"atonal","dev",1,1
25,24,"f","1","6",1,5,23,34,"3b",2,2.08949,3,2.17264,"tonal","std",2,1
25,24,"f","1","6",1,5,24,44,"6a",2,2.350095,3,1.18865,"tonal","std",2,1
25,24,"f","1","6",1,5,25,30,"2b",2,1.949865,1,1.58502,"tonal","std",2,1
25,24,"f","1","6",1,5,26,19,"5b",2,1.356635,2,1.6505,"atonal","dev",1,0
25,24,"f","1","6",1,5,27,46,"6b",2,1.767615,2,0.985845,"tonal","std",2,1
25,24,"f","1","6",1,5,28,42,"5b",2,1.624085,1,0.47575,"tonal","std",2,1
25,24,"f","1","6",1,5,29,26,"1b",2,2.049575,1,0.244185,"tonal","std",2,1
25,24,"f","1","6",1,5,30,12,"4a",2,4.68564,1,4.256855,"atonal","std",2,1
25,24,"f","1","6",1,5,31,47,"6b",2,2.33282,1,0.186405,"tonal","dev",1,0
25,24,"f","1","6",1,5,32,27,"1b",1,1.259415,4,1.144645,"tonal","dev",1,1
25,24,"f","1","6",1,5,33,40,"5a",1,1.93573,4,1.235505,"tonal","std",2,0
25,24,"f","1","6",1,5,34,5,"2a",1,1.328945,5,0.419405,"atonal","dev",1,1
25,24,"f","1","6",1,5,35,33,"3a",2,1.81065,4,0.96888,"tonal","dev",1,0
25,24,"f","1","6",1,5,36,31,"2b",1,1.236455,5,0.43651,"tonal","dev",1,1
25,24,"f","1","6",1,5,37,43,"5b",1,1.284805,5,0.391065,"tonal","dev",1,1
25,24,"f","1","6",1,5,38,23,"6b",1,1.384415,7,1.350395,"atonal","dev",1,1
25,24,"f","1","6",1,5,39,15,"4b",1,1.790675,5,1.251815,"atonal","dev",1,1
25,24,"f","1","6",1,5,40,35,"3b",1,1.20587,4,1.03169,"tonal","dev",1,1
25,24,"f","1","6",1,5,41,21,"6a",1,1.550425,6,0.66787,"atonal","dev",1,1
25,24,"f","1","6",1,5,42,28,"2a",1,2.204025,7,0.600895,"tonal","std",2,0
25,24,"f","1","6",1,5,43,20,"6a",2,2.549985,5,1.10134,"atonal","std",2,1
25,24,"f","1","6",1,5,44,0,"1a",1,5.21428,6,1.528445,"atonal","std",2,0
25,24,"f","1","6",1,5,45,2,"1b",2,2.283365,1,0.218805,"atonal","std",2,1
25,24,"f","1","6",1,5,46,7,"2b",1,17.273455,4,1.46812,"atonal","dev",1,1
25,24,"f","1","6",1,5,47,45,"6a",2,3.693015,3,0.534545,"tonal","dev",1,0
26,35,"f","2","7",1,1,0,19,"5b",1,3.973,2,2.02,"atonal","dev",1,1
26,35,"f","2","7",1,1,1,46,"6b",1,3.836,2,2.051,"tonal","std",2,0
26,35,"f","2","7",1,1,2,27,"1b",1,4.345,2,1.32,"tonal","dev",1,1
26,35,"f","2","7",1,1,3,31,"2b",1,3.61,2,2.092,"tonal","dev",1,1
26,35,"f","2","7",1,1,4,26,"1b",2,1.269,2,1.013,"tonal","std",2,1
26,35,"f","2","7",1,1,5,1,"1a",2,2.768,2,1.435,"atonal","dev",1,0
26,35,"f","2","7",1,1,6,38,"4b",1,4.136,2,1.153,"tonal","std",2,0
26,35,"f","2","7",1,1,7,33,"3a",1,6.495,1,2.271,"tonal","dev",1,1
26,35,"f","2","7",1,1,8,32,"3a",1,1.893,3,2.268,"tonal","std",2,0
26,35,"f","2","7",1,1,9,18,"5b",2,4.576,1,2.008,"atonal","std",2,1
26,35,"f","2","7",1,1,10,3,"1b",1,2.937,1,1.618,"atonal","dev",1,1
26,35,"f","2","7",1,1,11,12,"4a",1,2.996,1,2.062,"atonal","std",2,0
26,35,"f","2","7",1,1,12,41,"5a",2,1.456,2,1.592,"tonal","dev",1,0
26,35,"f","2","7",1,1,13,20,"6a",1,1.238,2,1.09,"atonal","std",2,0
26,35,"f","2","7",1,1,14,40,"5a",1,2.223,1,1.885,"tonal","std",2,0
26,35,"f","2","7",1,1,15,11,"3b",1,1.687,1,1.284,"atonal","dev",1,1
26,35,"f","2","7",1,1,16,8,"3a",1,1.538,1,1.234,"atonal","std",2,0
26,35,"f","2","7",1,1,17,23,"6b",1,3.987,1,1.35,"atonal","dev",1,1
26,35,"f","2","7",1,1,18,34,"3b",2,2.321,2,1.634,"tonal","std",2,1
26,35,"f","2","7",1,1,19,28,"2a",2,1.603,2,1.919,"tonal","std",2,1
26,35,"f","2","7",1,1,20,35,"3b",2,1.305,1,1.311,"tonal","dev",1,0
26,35,"f","2","7",1,1,21,22,"6b",1,2.002,2,1.158,"atonal","std",2,0
26,35,"f","2","7",1,1,22,9,"3a",1,1.753,2,1.411,"atonal","dev",1,1
26,35,"f","2","7",1,1,23,24,"1a",1,2.321,1,0.984,"tonal","std",2,0
26,35,"f","2","7",1,1,24,39,"4b",1,1.085,1,1.595,"tonal","dev",1,1
26,35,"f","2","7",1,1,25,36,"4a",1,1.95,1,1.785,"tonal","std",2,0
26,35,"f","2","7",1,1,26,0,"1a",1,1.675,2,2.17,"atonal","std",2,0
26,35,"f","2","7",1,1,27,45,"6a",1,0.856,3,1.439,"tonal","dev",1,1
26,35,"f","2","7",1,1,28,47,"6b",2,1.311,2,1.686,"tonal","dev",1,0
26,35,"f","2","7",1,1,29,7,"2b",1,2.435,1,1.177,"atonal","dev",1,1
26,35,"f","2","7",1,1,30,44,"6a",1,0.477,3,2.007,"tonal","std",2,0
26,35,"f","2","7",1,1,31,42,"5b",2,1.535,2,1.194,"tonal","std",2,1
26,35,"f","2","7",1,1,32,15,"4b",1,1.188,1,1.156,"atonal","dev",1,1
26,35,"f","2","7",1,1,33,17,"5a",2,2.068,2,1.595,"atonal","dev",1,0
26,35,"f","2","7",1,1,34,29,"2a",2,2.008,1,1.169,"tonal","dev",1,0
26,35,"f","2","7",1,1,35,21,"6a",1,2.997,1,1.586,"atonal","dev",1,1
26,35,"f","2","7",1,1,36,37,"4a",1,1.622,1,2.352,"tonal","dev",1,1
26,35,"f","2","7",1,1,37,14,"4b",1,2.412,1,1.237,"atonal","std",2,0
26,35,"f","2","7",1,1,38,4,"2a",1,1.539,1,1.258,"atonal","std",2,0
26,35,"f","2","7",1,1,39,2,"1b",1,2.285,1,1.209,"atonal","std",2,0
26,35,"f","2","7",1,1,40,25,"1a",2,0.803,1,2.037,"tonal","dev",1,0
26,35,"f","2","7",1,1,41,30,"2b",2,1.485,3,1.519,"tonal","std",2,1
26,35,"f","2","7",1,1,42,43,"5b",2,1.64,2,1.66,"tonal","dev",1,0
26,35,"f","2","7",1,1,43,10,"3b",2,1.368,1,1.719,"atonal","std",2,1
26,35,"f","2","7",1,1,44,6,"2b",1,5.069,1,0.827,"atonal","std",2,0
26,35,"f","2","7",1,1,45,5,"2a",1,3.568,1,0.792,"atonal","dev",1,1
26,35,"f","2","7",1,1,46,13,"4a",2,1.073,2,1.805,"atonal","dev",1,0
26,35,"f","2","7",1,1,47,16,"5a",2,1.427,2,1.089,"atonal","std",2,1
27,39,"m","10","4",2,3,0,10,"3b",2,2.406,4,0.978,"atonal","std",2,1
27,39,"m","10","4",2,3,1,9,"3a",1,0.951,4,1.504,"atonal","dev",1,1
27,39,"m","10","4",2,3,2,2,"1b",2,4.258,4,1.444,"atonal","std",2,1
27,39,"m","10","4",2,3,3,43,"5b",1,1.253,5,2.001,"tonal","dev",1,1
27,39,"m","10","4",2,3,4,41,"5a",1,1.351,2,1.278,"tonal","dev",1,1
27,39,"m","10","4",2,3,5,25,"1a",1,1.53,1,1.171,"tonal","dev",1,1
27,39,"m","10","4",2,3,6,16,"5a",2,2.584,5,3.121,"atonal","std",2,1
27,39,"m","10","4",2,3,7,39,"4b",1,1.351,3,1.394,"tonal","dev",1,1
27,39,"m","10","4",2,3,8,11,"3b",1,1.171,2,1.334,"atonal","dev",1,1
27,39,"m","10","4",2,3,9,46,"6b",2,1.537,5,2.742,"tonal","std",2,1
27,39,"m","10","4",2,3,10,24,"1a",1,1.266,1,0.999,"tonal","std",2,0
27,39,"m","10","4",2,3,11,26,"1b",2,1.675,4,2.119,"tonal","std",2,1
27,39,"m","10","4",2,3,12,47,"6b",1,1.072,4,1.775,"tonal","dev",1,1
27,39,"m","10","4",2,3,13,19,"5b",1,1.187,4,2.276,"atonal","dev",1,1
27,39,"m","10","4",2,3,14,33,"3a",1,1.774,4,2.164,"tonal","dev",1,1
27,39,"m","10","4",2,3,15,21,"6a",2,1.374,2,1.492,"atonal","dev",1,0
27,39,"m","10","4",2,3,16,13,"4a",1,0.931,4,5.504,"atonal","dev",1,1
27,39,"m","10","4",2,3,17,37,"4a",1,1.888,4,1.122,"tonal","dev",1,1
27,39,"m","10","4",2,3,18,12,"4a",2,12.233,4,1.175,"atonal","std",2,1
27,39,"m","10","4",2,3,19,22,"6b",2,3.098,4,1.173,"atonal","std",2,1
27,39,"m","10","4",2,3,20,5,"2a",2,2.063,5,1.601,"atonal","dev",1,0
27,39,"m","10","4",2,3,21,14,"4b",2,2.487,5,0.697,"atonal","std",2,1
27,39,"m","10","4",2,3,22,7,"2b",1,1.247,4,2.725,"atonal","dev",1,1
27,39,"m","10","4",2,3,23,30,"2b",2,1.387,5,1.862,"tonal","std",2,1
27,39,"m","10","4",2,3,24,36,"4a",2,1.601,5,1.542,"tonal","std",2,1
27,39,"m","10","4",2,3,25,4,"2a",2,2.406,5,3.574,"atonal","std",2,1
27,39,"m","10","4",2,3,26,45,"6a",1,1.299,3,2.565,"tonal","dev",1,1
27,39,"m","10","4",2,3,27,44,"6a",2,1.368,5,0.917,"tonal","std",2,1
27,39,"m","10","4",2,3,28,20,"6a",2,1.855,5,0.69,"atonal","std",2,1
27,39,"m","10","4",2,3,29,28,"2a",2,3.819,5,0.766,"tonal","std",2,1
27,39,"m","10","4",2,3,30,8,"3a",2,1.267,5,1.452,"atonal","std",2,1
27,39,"m","10","4",2,3,31,23,"6b",2,1.419,5,0.852,"atonal","dev",1,0
27,39,"m","10","4",2,3,32,17,"5a",1,1.643,2,1.841,"atonal","dev",1,1
27,39,"m","10","4",2,3,33,38,"4b",2,3.005,4,2.677,"tonal","std",2,1
27,39,"m","10","4",2,3,34,40,"5a",2,1.405,5,1.672,"tonal","std",2,1
27,39,"m","10","4",2,3,35,32,"3a",2,1.122,6,1.629,"tonal","std",2,1
27,39,"m","10","4",2,3,36,15,"4b",1,2.072,2,1.754,"atonal","dev",1,1
27,39,"m","10","4",2,3,37,18,"5b",2,1.808,4,1.391,"atonal","std",2,1
27,39,"m","10","4",2,3,38,31,"2b",1,1.138,4,1.317,"tonal","dev",1,1
27,39,"m","10","4",2,3,39,1,"1a",1,13.529,2,1.076,"atonal","dev",1,1
27,39,"m","10","4",2,3,40,42,"5b",2,2.172,5,0.7,"tonal","std",2,1
27,39,"m","10","4",2,3,41,27,"1b",1,0.67,5,1.788,"tonal","dev",1,1
27,39,"m","10","4",2,3,42,6,"2b",2,2.747,4,2.055,"atonal","std",2,1
27,39,"m","10","4",2,3,43,35,"3b",1,3.088,7,1.698,"tonal","dev",1,1
27,39,"m","10","4",2,3,44,0,"1a",2,1.634,4,1.104,"atonal","std",2,1
27,39,"m","10","4",2,3,45,34,"3b",2,1.692,6,1.171,"tonal","std",2,1
27,39,"m","10","4",2,3,46,29,"2a",1,1.404,6,1.106,"tonal","dev",1,1
27,39,"m","10","4",2,3,47,3,"1b",1,0.931,3,1.256,"atonal","dev",1,1
28,34,"m","0","0",1,1,0,22,"6b",2,1.554435,5,1.94947,"atonal","std",2,1
28,34,"m","0","0",1,1,1,5,"2a",1,1.01663,5,1.01944,"atonal","dev",1,1
28,34,"m","0","0",1,1,2,39,"4b",1,0.918105,7,0.7009,"tonal","dev",1,1
28,34,"m","0","0",1,1,3,28,"2a",2,2.02029,7,0.90237,"tonal","std",2,1
28,34,"m","0","0",1,1,4,23,"6b",1,0.666545,7,0.716455,"atonal","dev",1,1
28,34,"m","0","0",1,1,5,17,"5a",1,0.605915,7,0.803495,"atonal","dev",1,1
28,34,"m","0","0",1,1,6,35,"3b",1,1.01812,5,0.785765,"tonal","dev",1,1
28,34,"m","0","0",1,1,7,46,"6b",2,0.853475,7,1.067725,"tonal","std",2,1
28,34,"m","0","0",1,1,8,3,"1b",1,0.80031,7,0.701375,"atonal","dev",1,1
28,34,"m","0","0",1,1,9,9,"3a",1,0.60026,7,0.43618,"atonal","dev",1,1
28,34,"m","0","0",1,1,10,16,"5a",2,0.516125,5,0.922295,"atonal","std",2,1
28,34,"m","0","0",1,1,11,42,"5b",2,3.25266,5,0.38466,"tonal","std",2,1
28,34,"m","0","0",1,1,12,36,"4a",2,2.000865,7,0.484565,"tonal","std",2,1
28,34,"m","0","0",1,1,13,25,"1a",1,1.25137,7,0.534615,"tonal","dev",1,1
28,34,"m","0","0",1,1,14,1,"1a",1,2.951935,5,0.55128,"atonal","dev",1,1
28,34,"m","0","0",1,1,15,2,"1b",2,1.884035,5,0.534705,"atonal","std",2,1
28,34,"m","0","0",1,1,16,11,"3b",1,0.666765,7,0.434135,"atonal","dev",1,1
28,34,"m","0","0",1,1,17,47,"6b",1,1.299315,7,0.634055,"tonal","dev",1,1
28,34,"m","0","0",1,1,18,8,"3a",1,1.78372,5,1.42042,"atonal","std",2,0
28,34,"m","0","0",1,1,19,7,"2b",1,0.76727,7,0.40022,"atonal","dev",1,1
28,34,"m","0","0",1,1,20,34,"3b",2,0.871815,7,0.41774,"tonal","std",2,1
28,34,"m","0","0",1,1,21,24,"1a",1,0.86778,7,0.50041,"tonal","std",2,0
28,34,"m","0","0",1,1,22,43,"5b",1,0.789125,7,0.41682,"tonal","dev",1,1
28,34,"m","0","0",1,1,23,10,"3b",1,3.306185,7,1.4995,"atonal","std",2,0
28,34,"m","0","0",1,1,24,41,"5a",1,2.085485,5,0.633545,"tonal","dev",1,1
28,34,"m","0","0",1,1,25,18,"5b",1,1.554175,7,0.6013,"atonal","std",2,0
28,34,"m","0","0",1,1,26,12,"4a",1,1.533985,5,0.417795,"atonal","std",2,0
28,34,"m","0","0",1,1,27,30,"2b",2,1.235195,7,0.37223,"tonal","std",2,1
28,34,"m","0","0",1,1,28,13,"4a",1,1.26748,7,0.567315,"atonal","dev",1,1
28,34,"m","0","0",1,1,29,40,"5a",1,2.751045,5,0.834055,"tonal","std",2,0
28,34,"m","0","0",1,1,30,4,"2a",1,1.316875,5,0.320205,"atonal","std",2,0
28,34,"m","0","0",1,1,31,15,"4b",1,1.41789,5,0.56736,"atonal","dev",1,1
28,34,"m","0","0",1,1,32,38,"4b",2,0.42061,7,0.803055,"tonal","std",2,1
28,34,"m","0","0",1,1,33,29,"2a",1,0.7844,7,0.600785,"tonal","dev",1,1
28,34,"m","0","0",1,1,34,37,"4a",1,0.46874,7,0.71832,"tonal","dev",1,1
28,34,"m","0","0",1,1,35,44,"6a",2,1.28417,5,1.00448,"tonal","std",2,1
28,34,"m","0","0",1,1,36,26,"1b",1,2.12413,2,3.38451,"tonal","std",2,0
28,34,"m","0","0",1,1,37,27,"1b",1,0.46646,7,0.418115,"tonal","dev",1,1
28,34,"m","0","0",1,1,38,32,"3a",2,1.30165,5,0.73823,"tonal","std",2,1
28,34,"m","0","0",1,1,39,19,"5b",1,0.449775,7,0.41713,"atonal","dev",1,1
28,34,"m","0","0",1,1,40,31,"2b",1,0.46739,7,0.46764,"tonal","dev",1,1
28,34,"m","0","0",1,1,41,6,"2b",1,1.06721,7,0.433025,"atonal","std",2,0
28,34,"m","0","0",1,1,42,20,"6a",1,1.352895,5,0.550425,"atonal","std",2,0
28,34,"m","0","0",1,1,43,0,"1a",1,0.61774,5,0.26607,"atonal","std",2,0
28,34,"m","0","0",1,1,44,45,"6a",1,0.93884,7,0.399505,"tonal","dev",1,1
28,34,"m","0","0",1,1,45,21,"6a",1,1.70214,7,0.40056,"atonal","dev",1,1
28,34,"m","0","0",1,1,46,33,"3a",2,1.50076,5,0.88443,"tonal","dev",1,0
28,34,"m","0","0",1,1,47,14,"4b",1,3.217975,5,0.58637,"atonal","std",2,0
29,35,"f","0","0",1,1,0,44,"6a",1,10.15114,3,1.93929,"tonal","std",2,0
29,35,"f","0","0",1,1,1,7,"2b",2,2.77481,2,1.932685,"atonal","dev",1,0
29,35,"f","0","0",1,1,2,10,"3b",2,6.11119,2,1.33636,"atonal","std",2,1
29,35,"f","0","0",1,1,3,8,"3a",1,6.069645,2,1.127045,"atonal","std",2,0
29,35,"f","0","0",1,1,4,33,"3a",1,1.695005,4,1.910275,"tonal","dev",1,1
29,35,"f","0","0",1,1,5,32,"3a",2,1.245065,5,1.62082,"tonal","std",2,1
29,35,"f","0","0",1,1,6,47,"6b",2,7.334155,2,1.44741,"tonal","dev",1,0
29,35,"f","0","0",1,1,7,4,"2a",1,1.36854,3,1.29298,"atonal","std",2,0
29,35,"f","0","0",1,1,8,30,"2b",1,7.66339,2,2.17541,"tonal","std",2,0
29,35,"f","0","0",1,1,9,43,"5b",1,1.868135,5,1.79254,"tonal","dev",1,1
29,35,"f","0","0",1,1,10,42,"5b",1,1.35966,4,1.50182,"tonal","std",2,0
29,35,"f","0","0",1,1,11,17,"5a",1,1.90696,5,2.05023,"atonal","dev",1,1
29,35,"f","0","0",1,1,12,27,"1b",1,1.93383,4,2.03947,"tonal","dev",1,1
29,35,"f","0","0",1,1,13,13,"4a",2,1.8337,2,1.83466,"atonal","dev",1,0
29,35,"f","0","0",1,1,14,25,"1a",2,2.053035,4,1.44897,"tonal","dev",1,0
29,35,"f","0","0",1,1,15,5,"2a",2,14.554445,3,4.04597,"atonal","dev",1,0
29,35,"f","0","0",1,1,16,45,"6a",2,3.41536,3,2.16152,"tonal","dev",1,0
29,35,"f","0","0",1,1,17,19,"5b",2,3.53188,1,2.05571,"atonal","dev",1,0
29,35,"f","0","0",1,1,18,16,"5a",1,1.02202,1,1.655465,"atonal","std",2,0
29,35,"f","0","0",1,1,19,34,"3b",2,2.69864,2,0.603145,"tonal","std",2,1
29,35,"f","0","0",1,1,20,3,"1b",1,2.104315,4,1.340435,"atonal","dev",1,1
29,35,"f","0","0",1,1,21,29,"2a",1,1.36821,5,1.670305,"tonal","dev",1,1
29,35,"f","0","0",1,1,22,46,"6b",2,1.91706,4,1.517015,"tonal","std",2,1
29,35,"f","0","0",1,1,23,12,"4a",1,1.365415,3,1.64226,"atonal","std",2,0
29,35,"f","0","0",1,1,24,22,"6b",1,18.989805,3,2.896135,"atonal","std",2,0
29,35,"f","0","0",1,1,25,20,"6a",1,26.834035,2,1.765705,"atonal","std",2,0
29,35,"f","0","0",1,1,26,26,"1b",2,1.87694,4,1.69827,"tonal","std",2,1
29,35,"f","0","0",1,1,27,1,"1a",2,5.06995,2,1.486895,"atonal","dev",1,0
29,35,"f","0","0",1,1,28,41,"5a",2,1.732305,4,1.45289,"tonal","dev",1,0
29,35,"f","0","0",1,1,29,2,"1b",1,0.95169,3,1.590905,"atonal","std",2,0
29,35,"f","0","0",1,1,30,36,"4a",2,2.143405,4,1.11833,"tonal","std",2,1
29,35,"f","0","0",1,1,31,11,"3b",1,0.36286,6,1.960325,"atonal","dev",1,1
29,35,"f","0","0",1,1,32,9,"3a",1,1.44545,4,1.3613,"atonal","dev",1,1
29,35,"f","0","0",1,1,33,37,"4a",2,1.08345,4,1.320765,"tonal","dev",1,0
29,35,"f","0","0",1,1,34,23,"6b",1,1.10854,2,0.99746,"atonal","dev",1,1
29,35,"f","0","0",1,1,35,0,"1a",1,6.17532,1,1.897905,"atonal","std",2,0
29,35,"f","0","0",1,1,36,15,"4b",1,1.58329,5,2.21555,"atonal","dev",1,1
29,35,"f","0","0",1,1,37,28,"2a",2,1.627425,3,0.743305,"tonal","std",2,1
29,35,"f","0","0",1,1,38,24,"1a",2,10.137715,2,1.28162,"tonal","std",2,1
29,35,"f","0","0",1,1,39,18,"5b",1,1.139335,5,0.423705,"atonal","std",2,0
29,35,"f","0","0",1,1,40,38,"4b",2,1.53649,2,0.882555,"tonal","std",2,1
29,35,"f","0","0",1,1,41,35,"3b",1,3.128705,3,1.703265,"tonal","dev",1,1
29,35,"f","0","0",1,1,42,40,"5a",1,1.307875,4,1.29659,"tonal","std",2,0
29,35,"f","0","0",1,1,43,14,"4b",1,1.86979,2,1.358455,"atonal","std",2,0
29,35,"f","0","0",1,1,44,21,"6a",2,2.822705,1,0.56267,"atonal","dev",1,0
29,35,"f","0","0",1,1,45,39,"4b",1,2.149115,3,0.86136,"tonal","dev",1,1
29,35,"f","0","0",1,1,46,31,"2b",1,1.683285,5,0.486415,"tonal","dev",1,1
29,35,"f","0","0",1,1,47,6,"2b",1,1.405035,3,0.386185,"atonal","std",2,0
30,55,"f","0","0",1,1,0,19,"5b",1,2.148445,6,5.42389,"atonal","dev",1,1
30,55,"f","0","0",1,1,1,1,"1a",1,4.92603,7,2.0423,"atonal","dev",1,1
30,55,"f","0","0",1,1,2,38,"4b",2,1.471665,3,2.36048,"tonal","std",2,1
30,55,"f","0","0",1,1,3,9,"3a",2,2.06329,4,3.03794,"atonal","dev",1,0
30,55,"f","0","0",1,1,4,31,"2b",1,1.671465,6,1.769735,"tonal","dev",1,1
30,55,"f","0","0",1,1,5,30,"2b",2,2.25354,5,1.626285,"tonal","std",2,1
30,55,"f","0","0",1,1,6,47,"6b",1,1.69478,6,1.41224,"tonal","dev",1,1
30,55,"f","0","0",1,1,7,3,"1b",1,1.775065,7,1.277165,"atonal","dev",1,1
30,55,"f","0","0",1,1,8,14,"4b",2,4.42762,3,1.72824,"atonal","std",2,1
30,55,"f","0","0",1,1,9,24,"1a",2,2.60897,5,1.188095,"tonal","std",2,1
30,55,"f","0","0",1,1,10,18,"5b",2,1.98011,4,2.867625,"atonal","std",2,1
30,55,"f","0","0",1,1,11,45,"6a",1,3.843,3,2.620115,"tonal","dev",1,1
30,55,"f","0","0",1,1,12,44,"6a",2,1.48576,5,1.05553,"tonal","std",2,1
30,55,"f","0","0",1,1,13,0,"1a",1,1.32859,6,0.953095,"atonal","std",2,0
30,55,"f","0","0",1,1,14,37,"4a",1,2.14184,5,2.59625,"tonal","dev",1,1
30,55,"f","0","0",1,1,15,8,"3a",1,3.153395,4,2.361685,"atonal","std",2,0
30,55,"f","0","0",1,1,16,21,"6a",1,1.305485,6,0.74086,"atonal","dev",1,1
30,55,"f","0","0",1,1,17,20,"6a",2,1.25742,5,0.80176,"atonal","std",2,1
30,55,"f","0","0",1,1,18,32,"3a",2,1.2703,7,1.13438,"tonal","std",2,1
30,55,"f","0","0",1,1,19,26,"1b",2,1.683085,6,0.72505,"tonal","std",2,1
30,55,"f","0","0",1,1,20,23,"6b",1,1.042465,7,0.7612,"atonal","dev",1,1
30,55,"f","0","0",1,1,21,40,"5a",2,1.2218,6,0.791595,"tonal","std",2,1
30,55,"f","0","0",1,1,22,35,"3b",1,1.130365,7,1.118935,"tonal","dev",1,1
30,55,"f","0","0",1,1,23,27,"1b",1,1.17559,6,1.242495,"tonal","dev",1,1
30,55,"f","0","0",1,1,24,5,"2a",1,1.356195,7,0.81757,"atonal","dev",1,1
30,55,"f","0","0",1,1,25,12,"4a",2,2.60715,4,2.118725,"atonal","std",2,1
30,55,"f","0","0",1,1,26,33,"3a",1,1.444915,6,1.710975,"tonal","dev",1,1
30,55,"f","0","0",1,1,27,15,"4b",2,1.696395,5,1.490855,"atonal","dev",1,0
30,55,"f","0","0",1,1,28,29,"2a",1,1.118855,7,1.526905,"tonal","dev",1,1
30,55,"f","0","0",1,1,29,2,"1b",1,2.3714,3,2.291575,"atonal","std",2,0
30,55,"f","0","0",1,1,30,42,"5b",1,5.58121,4,2.00692,"tonal","std",2,0
30,55,"f","0","0",1,1,31,4,"2a",2,1.435185,5,1.222785,"atonal","std",2,1
30,55,"f","0","0",1,1,32,10,"3b",2,1.71101,6,2.37242,"atonal","std",2,1
30,55,"f","0","0",1,1,33,34,"3b",2,1.36946,7,1.48133,"tonal","std",2,1
30,55,"f","0","0",1,1,34,25,"1a",1,1.307655,7,0.90835,"tonal","dev",1,1
30,55,"f","0","0",1,1,35,28,"2a",2,2.140275,5,0.509705,"tonal","std",2,1
30,55,"f","0","0",1,1,36,13,"4a",1,2.5421,7,0.71747,"atonal","dev",1,1
30,55,"f","0","0",1,1,37,46,"6b",2,1.56922,6,0.98773,"tonal","std",2,1
30,55,"f","0","0",1,1,38,22,"6b",2,2.188765,3,1.207475,"atonal","std",2,1
30,55,"f","0","0",1,1,39,17,"5a",1,1.20291,5,0.69261,"atonal","dev",1,1
30,55,"f","0","0",1,1,40,6,"2b",2,3.153625,4,0.692615,"atonal","std",2,1
30,55,"f","0","0",1,1,41,43,"5b",1,1.409705,7,0.507625,"tonal","dev",1,1
30,55,"f","0","0",1,1,42,41,"5a",2,1.39779,3,1.0026,"tonal","dev",1,0
